"Time (s)","Acceleration x (m/s^2)","Acceleration y (m/s^2)","Acceleration z (m/s^2)"
1.161812100E-2,-6.281159520E-1,4.875675201E0,8.914461136E0
2.157093400E-2,-6.017948985E-1,4.945066929E0,8.268099785E0
3.153530900E-2,-5.802595019E-1,4.933103085E0,8.571988106E0
4.151598600E-2,-6.065805554E-1,4.863711357E0,8.519346237E0
5.151510000E-2,-5.706881881E-1,5.004887581E0,8.414061546E0
6.148395500E-2,-5.539384484E-1,4.894817829E0,8.461917877E0
7.137333000E-2,-5.682953596E-1,4.952245712E0,8.612666130E0
8.131208000E-2,-6.810571551E-1,4.866104126E0,8.445168495E0
9.131890200E-2,-7.959126234E-1,4.894817829E0,8.567202568E0
1.012859340E-1,-7.648059130E-1,4.851747036E0,8.344670296E0
1.112794750E-1,-6.930212379E-1,4.959424019E0,8.560024261E0
1.212574440E-1,-8.270193338E-1,4.875675201E0,8.481060982E0
1.311780690E-1,-8.868398666E-1,4.846961498E0,8.653642654E0
1.411321840E-1,-8.222336769E-1,4.811069012E0,8.418847084E0
1.511102570E-1,-7.815557122E-1,4.880460739E0,8.548059464E0
1.610742670E-1,-8.246265054E-1,4.863711357E0,8.490632057E0
1.710499960E-1,-7.791628838E-1,4.942674160E0,8.605487823E0
1.810187980E-1,-7.863413692E-1,4.890032291E0,8.574380875E0
1.909786940E-1,-7.624131441E-1,4.858925343E0,8.622237206E0
2.009437460E-1,-7.313064337E-1,4.837389946E0,8.473882675E0
2.109209860E-1,-6.954140663E-1,4.849354267E0,8.471489906E0
2.208910900E-1,-7.265207767E-1,4.839782715E0,8.488239288E0
2.308748920E-1,-7.576274872E-1,4.839782715E0,8.519346237E0
2.408506210E-1,-7.600203156E-1,4.844568729E0,8.588737488E0
2.508351000E-1,-6.906284094E-1,4.870889664E0,8.552845001E0
2.608144750E-1,-6.065805554E-1,4.894817829E0,8.524131775E0
2.707378610E-1,-5.635097623E-1,4.887639523E0,8.488239288E0
2.806937980E-1,-6.017948985E-1,4.868496895E0,8.514560699E0
2.906903610E-1,-6.185446382E-1,4.878067970E0,8.514560699E0
3.006632770E-1,-6.065805554E-1,4.897210598E0,8.488239288E0
3.106230170E-1,-5.922235847E-1,4.885246754E0,8.488239288E0
3.205903610E-1,-5.587241054E-1,4.875675201E0,8.521739006E0
3.305723400E-1,-4.917250574E-1,4.945066929E0,8.402097702E0
3.405457770E-1,-5.635097623E-1,4.923531532E0,8.469096184E0
3.504961420E-1,-6.472585201E-1,4.913960457E0,8.607880592E0
3.604598920E-1,-6.065805554E-1,4.933103085E0,8.545666695E0
3.704093710E-1,-5.443671346E-1,4.959424019E0,8.509774208E0
3.803716630E-1,-5.060819983E-1,4.952245712E0,8.483453751E0
3.903514550E-1,-5.180460811E-1,4.937888622E0,8.449954033E0
4.003155170E-1,-5.300102234E-1,4.892425060E0,8.497810364E0
4.103196320E-1,-5.802595019E-1,4.918745995E0,8.497810364E0
4.202877050E-1,-6.496513486E-1,4.897210598E0,8.493024826E0
4.302281730E-1,-6.616154313E-1,4.923531532E0,8.524131775E0
4.401934340E-1,-6.810571551E-1,4.954638481E0,8.519346237E0
4.501722880E-1,-6.834499836E-1,4.937888622E0,8.533702850E0
4.601389550E-1,-6.786643267E-1,4.935495853E0,8.440382957E0
4.701652050E-1,-7.265207767E-1,4.921138763E0,8.466703415E0
4.801378610E-1,-7.791628838E-1,4.911567688E0,8.507381439E0
4.900387460E-1,-7.695915699E-1,4.954638481E0,8.411668777E0
5.000041110E-1,-7.719843984E-1,4.952245712E0,8.406883240E0
5.099666630E-1,-7.887341380E-1,4.937888622E0,8.440382957E0
5.199317150E-1,-8.126623631E-1,4.916353226E0,8.519346237E0
5.298996840E-1,-8.485547304E-1,4.906782150E0,8.555238724E0
5.398650480E-1,-7.935197949E-1,4.959424019E0,8.512166977E0
5.498433300E-1,-6.762714982E-1,4.973781109E0,8.488239288E0
5.598099960E-1,-6.858428121E-1,4.966602325E0,8.440382957E0
5.697788500E-1,-7.049853802E-1,4.945066929E0,8.495417595E0
5.797457250E-1,-6.978068948E-1,4.947459698E0,8.473882675E0
5.896921840E-1,-6.930212379E-1,4.947459698E0,8.392526627E0
5.996569750E-1,-6.762714982E-1,4.937888622E0,8.540881157E0
6.096409860E-1,-6.786643267E-1,4.988137722E0,8.258528709E0
6.196077050E-1,-6.954140663E-1,4.976173878E0,8.461917877E0
6.295734340E-1,-7.384848595E-1,4.949852943E0,8.569595337E0
6.395399960E-1,-6.810571551E-1,5.019244671E0,8.390133858E0
6.494988500E-1,-6.281159520E-1,5.028815746E0,8.325527191E0
6.594646840E-1,-6.376872063E-1,4.995316505E0,8.461917877E0
6.694477570E-1,-7.265207767E-1,4.911567688E0,8.373383522E0
6.794152570E-1,-6.762714982E-1,5.105386257E0,8.035696983E0
6.893840070E-1,-5.252245665E-1,4.581058979E0,1.004686451E1
6.993516630E-1,-6.690930128E-1,5.196612358E0,8.136494637E0
7.093029130E-1,-5.108676553E-1,5.000102043E0,8.897710800E0
7.192689020E-1,-5.994020700E-1,5.110171795E0,8.021339417E0
7.292417150E-1,-6.257231236E-1,5.081458092E0,7.817949772E0
7.392083820E-1,-6.667001843E-1,4.866104126E0,8.502595901E0
7.491841630E-1,-6.520441771E-1,5.069493771E0,8.490632057E0
7.591517670E-1,-6.089733839E-1,5.100600719E0,8.349455833E0
7.691688500E-1,-5.635097623E-1,5.083850861E0,8.648857117E0
7.791414020E-1,-4.893322289E-1,5.107779026E0,8.296813011E0
7.890455170E-1,-4.079762697E-1,5.105386257E0,8.461917877E0
7.990111420E-1,-5.084748268E-1,5.059922695E0,8.483453751E0
8.089893710E-1,-4.677968323E-1,5.117350101E0,8.418847084E0
8.189562460E-1,-3.601198196E-1,5.146064281E0,8.363812447E0
8.289132770E-1,-3.361915946E-1,5.091029167E0,8.615058899E0
8.388791630E-1,-2.380858511E-1,5.146064281E0,8.251349449E0
8.488517150E-1,-3.002992272E-1,5.134099960E0,8.421239853E0
8.588182250E-1,-3.505485058E-1,5.040780067E0,8.519346237E0
8.687955170E-1,-4.510470629E-1,5.107779026E0,8.385348320E0
8.787631730E-1,-4.821537733E-1,5.004887581E0,8.473882675E0
8.887161940E-1,-5.036891699E-1,5.040780067E0,8.519346237E0
8.986823400E-1,-4.797609448E-1,5.052743912E0,8.280063629E0
9.086641630E-1,-5.084748268E-1,5.038387299E0,8.473882675E0
9.186318710E-1,-6.882356405E-1,5.012066364E0,8.478668213E0
9.285974960E-1,-6.786643267E-1,5.045565605E0,8.390133858E0
9.385649440E-1,-6.592226624E-1,4.997709274E0,8.536095619E0
9.485166630E-1,-7.073782086E-1,4.918745995E0,8.478668213E0
9.584825480E-1,-7.097710371E-1,4.933103085E0,8.390133858E0
9.684712980E-1,-6.667001843E-1,4.992923737E0,8.593523026E0
9.784394750E-1,-7.193422914E-1,5.088636398E0,8.382954597E0
9.884021840E-1,-7.528418303E-1,5.107779026E0,8.332705498E0
9.983698400E-1,-8.102695942E-1,5.057529926E0,8.550452232E0
1.008324892E0,-9.346963167E-1,5.024030209E0,8.504988670E0
1.018291246E0,-9.801599979E-1,5.052743912E0,8.332705498E0
1.028265309E0,-9.801599979E-1,5.045565605E0,8.375776291E0
1.038232444E0,-1.061515927E0,5.105386257E0,8.380561829E0
1.048202132E0,-1.063908815E0,5.172385216E0,8.294420242E0
1.058169475E0,-9.849455953E-1,5.169992447E0,8.397312164E0
1.068133798E0,-8.796614408E-1,5.201398373E0,8.390133858E0
1.078100830E0,-7.576274872E-1,5.270790100E0,8.299205780E0
1.088068382E0,-7.217351198E-1,5.256433010E0,8.359026909E0
1.098035413E0,-7.839485407E-1,5.213362217E0,8.406883240E0
1.108012288E0,-8.222336769E-1,5.215754986E0,8.303992271E0
1.117980361E0,-7.552346587E-1,5.254040241E0,8.404490471E0
1.127938277E0,-7.336992621E-1,5.306682587E0,8.375776291E0
1.137905257E0,-8.174480200E-1,5.297111034E0,8.215457916E0
1.147882392E0,-1.121336460E0,5.282754421E0,8.287241936E0
1.157850413E0,-1.145264745E0,5.287539959E0,8.236992836E0
1.167820934E0,-1.011266708E0,5.443073273E0,8.071588516E0
1.177789215E0,-1.902294010E-1,6.108577251E0,7.748558044E0
1.187739736E0,-4.558327198E-1,5.670391560E0,7.197909832E0
1.197706194E0,-6.544370055E-1,5.450251579E0,9.211469650E0
1.207686038E0,1.824527234E-2,5.864509106E0,6.747759819E0
1.217653850E0,-6.550352275E-2,5.862116337E0,8.670392990E0
1.227620152E0,4.301098585E-1,5.969793320E0,8.562417030E0
1.237587809E0,-4.271188378E-1,5.933900833E0,7.365406990E0
1.247545361E0,-2.356930375E-1,5.670391560E0,8.725427628E0
1.257512027E0,-7.552346587E-1,5.651248932E0,7.348657608E0
1.267490725E0,-6.667001843E-1,5.998507500E0,7.782057285E0
1.277458538E0,-9.825528264E-1,5.653641701E0,7.664809227E0
1.287428902E0,-9.059824944E-1,5.728118420E0,8.344670296E0
1.297397027E0,-7.839485407E-1,5.795117378E0,7.643273830E0
1.307343173E0,-1.344168067E0,5.311468124E0,8.959924698E0
1.317309007E0,-1.171585798E0,5.471786976E0,8.878568649E0
1.327290361E0,-1.303490162E0,5.878866196E0,7.226623535E0
1.337257757E0,-1.210170031E0,5.672784328E0,7.779664516E0
1.347224684E0,-1.154836059E0,5.478965759E0,8.076375008E0
1.357192027E0,-9.777671695E-1,5.543571949E0,7.580761433E0
1.367154423E0,-1.183549881E0,5.254040241E0,8.624629974E0
1.377121246E0,-1.322632670E0,5.581857204E0,8.292027473E0
1.387100777E0,-1.176371455E0,5.840580940E0,7.568797112E0
1.397068902E0,-9.059824944E-1,5.512465000E0,8.699107170E0
1.407038330E0,-1.075872898E0,5.395216942E0,8.160422325E0
1.417006559E0,-1.147657514E0,5.141278744E0,7.609774113E0
1.426970517E0,-1.322632670E0,4.662714005E0,8.866603851E0
1.436938330E0,-1.140479088E0,5.009673119E0,8.263314247E0
1.446907288E0,-1.183549881E0,5.562714577E0,7.547261715E0
1.456875152E0,-1.214955688E0,5.091029167E0,8.435597420E0
1.466843434E0,-3.244966507E0,3.805485249E0,9.357432365E0
1.476811350E0,-7.624131441E-1,4.674678326E0,8.749356270E0
1.486766975E0,-1.461416483E0,4.921138763E0,8.648857117E0
1.496733642E0,-1.820638895E0,5.342574596E0,8.404490471E0
1.506709788E0,-1.099801064E0,5.541179180E0,6.783652306E0
1.516677444E0,-1.322632670E0,5.150849819E0,8.770891190E0
1.526649267E0,-2.172383785E0,4.585844517E0,8.437990189E0
1.536617288E0,-1.322632670E0,5.306682587E0,8.030911446E0
1.546572444E0,-1.588235974E0,4.964209557E0,9.323932648E0
1.556539163E0,-1.839781523E0,4.849354267E0,7.980661869E0
1.566501559E0,-4.066302776E0,2.704188585E0,8.292027473E0
1.576467861E0,-3.384049416E0,3.144767046E0,1.050179958E1
1.586446142E0,-1.839781523E0,5.222933769E0,4.920839787E0
1.596413590E0,9.137591720E-1,8.213064194E0,7.236194611E0
1.606371038E0,-2.721835673E-2,6.024828434E0,8.940781593E0
1.616337496E0,-2.854936600E0,5.447858810E0,1.059751225E1
1.626295517E0,-3.575475216E0,4.708177567E0,6.536892414E0
1.636261142E0,-2.596212626E0,4.640879631E0,8.449954033E0
1.646251975E0,-1.959422588E0,5.165206909E0,6.300003052E0
1.656220152E0,-4.414757788E-1,5.464608669E0,7.003791809E0
1.666174267E0,-9.658030272E-1,5.098207951E0,1.136381340E1
1.676140986E0,-2.979363203E0,6.470192432E0,7.446763039E0
1.686091871E0,-4.329812527E0,7.823034763E0,5.181956768E0
1.696056975E0,-3.637688637E0,6.515655994E0,7.176374435E0
1.706046298E0,-1.473380566E0,6.218945980E0,7.944769382E0
1.716013798E0,-1.152443171E0,5.706583023E0,7.317550659E0
1.725977392E0,-2.634497643E0,5.615356445E0,9.199505806E0
1.735944527E0,-2.850150824E0,6.223731518E0,5.694319725E0
1.745929215E0,-1.818246126E0,6.675975323E0,5.964708805E0
1.755898121E0,-1.430309772E0,5.309075356E0,8.500203133E0
1.765847184E0,-1.528415442E0,5.783153057E0,9.134600639E0
1.775814059E0,-1.660020709E0,6.661618233E0,5.979065418E0
1.785814944E0,-2.055135489E0,6.379265308E0,7.305586815E0
1.795785257E0,-1.413560033E0,5.634499073E0,6.764509678E0
1.805733277E0,-1.181157112E0,6.324230194E0,6.388537407E0
1.815701350E0,-1.059123158E0,7.375277519E0,4.863411903E0
1.825644423E0,-3.337987661E-1,7.638488293E0,7.679165840E0
1.835609944E0,5.401797295E-1,6.659225464E0,8.414061546E0
1.845603850E0,9.209375978E-1,5.313860893E0,8.624629974E0
1.855572236E0,4.109672904E-1,4.561916351E0,9.879366875E0
1.865521871E0,-1.325025558E-1,6.106184483E0,6.649653912E0
1.875488382E0,5.653043464E-2,6.791129589E0,3.197110176E0
1.885475257E0,1.106680464E-2,5.974578857E0,8.778069496E0
1.895443798E0,-1.591227055E-1,5.325825214E0,8.030911446E0
1.905397027E0,-4.342973232E-1,7.327421188E0,8.768498421E0
1.915364007E0,-1.870888233E0,7.130910397E0,5.708676815E0
1.925347340E0,-2.483749866E0,6.010471344E0,7.949554920E0
1.935315986E0,-1.593021631E0,4.430311203E0,8.234600067E0
1.945251663E0,-1.700698733E0,4.928317547E0,8.382954597E0
1.955216975E0,-1.830210209E0,5.790331841E0,7.650452137E0
1.965206090E0,-1.128515005E0,6.498906136E0,8.174779892E0
1.975173746E0,-8.940183520E-1,6.218945980E0,5.835496426E0
1.985150673E0,-1.533201098E0,4.435096741E0,1.262542915E1
1.995119319E0,-2.376072884E0,3.989732742E0,1.290568924E1
2.005067652E0,-1.897209287E0,7.432705402E0,4.365406036E0
2.015034215E0,-1.154836059E0,5.699404240E0,6.434000969E0
2.024983642E0,-1.214955688E0,3.647558928E0,1.547229004E1
2.034948486E0,-2.098206282E0,4.720141888E0,8.370990753E0
2.044937132E0,-8.988040090E-1,6.094220161E0,7.403692245E0
2.054904319E0,-4.007977843E-1,5.706583023E0,5.193920612E0
2.064877288E0,-9.083753228E-1,3.661916018E0,8.246563911E0
2.074845100E0,-1.329811215E0,4.497310162E0,1.478973770E1
2.084783642E0,-6.667001843E-1,8.874081612E0,2.447857618E0
2.094748434E0,3.978067636E-2,9.120542526E0,4.200301170E0
2.104763017E0,3.053839803E-1,5.878866196E0,9.771689415E0
2.114732861E0,3.990031779E-1,5.953043461E0,2.028814554E0
2.124697965E0,1.129113197E0,6.043971062E0,5.947958946E0
2.134667340E0,1.531406522E0,4.839782715E0,9.802796364E0
2.144605413E0,1.211366430E-1,6.223731518E0,4.205086708E0
2.154571559E0,-5.084748268E-1,5.780760288E0,3.592225075E0
2.164540621E0,-1.408774376E0,5.242076397E0,7.506583691E0
2.174507132E0,-6.329016089E-1,4.255635262E0,1.357119274E1
2.184462965E0,6.478567123E-1,6.233303070E0,1.829492378E1
2.194428382E0,1.392323732E0,9.601799011E0,4.755734921E0
2.204425621E0,2.347658157E0,6.120541096E0,7.310372353E0
2.214394267E0,5.234299302E-1,9.299107194E-1,2.301865387E1
2.224349788E0,-6.906284094E-1,4.985744953E0,6.429215431E0
2.234317080E0,-2.261217386E-1,7.593024254E0,-5.521438122E-1
2.244281767E0,-7.097710371E-1,2.081755638E0,1.330289745E1
2.254248798E0,-1.712961912E0,3.111267567E0,1.022662449E1
2.264206350E0,-1.751247048E0,5.672784328E0,1.011864853E1
2.274172392E0,-2.297109842E0,5.201398373E0,2.115853500E1
2.284157705E0,-2.610569477E0,7.308278561E0,3.704687595E0
2.294125673E0,-2.960220814E0,6.302694798E0,-2.924926519E0
2.304089996E0,-3.482155085E0,1.107278705E0,1.042283630E1
2.314057600E0,-2.232503414E0,4.267599106E0,8.435597420E0
2.324019632E0,-1.669592023E0,7.980960846E0,5.236991405E0
2.333986663E0,-1.609771490E0,6.415157318E0,1.011386299E1
2.343927548E0,-1.205384374E0,5.299503803E0,5.299204826E0
2.353891923E0,-1.075872898E0,3.273979664E0,5.497808933E0
2.363883069E0,-9.227322340E-1,2.536391973E0,1.077248764E1
2.373850152E0,-1.114158034E0,5.016851902E0,7.772486210E0
2.383830309E0,-9.897312522E-1,6.374479294E0,6.460321903E0
2.393798746E0,-5.371887088E-1,5.069493771E0,7.511369228E0
2.403763902E0,-3.505485058E-1,4.894817829E0,7.348657608E0
2.413731923E0,-6.550352275E-2,3.965804338E0,1.172273731E1
2.423697496E0,-1.008873820E0,5.694618702E0,9.182756424E0
2.433665309E0,-1.317847013E0,6.987341404E0,3.134896755E0
2.443631715E0,-1.341775298E0,4.308277130E0,9.261718750E0
2.453599371E0,-7.743772268E-1,3.417548895E0,6.024528980E0
2.463597132E0,-2.325823545E0,4.123730659E0,6.180361748E0
2.473567809E0,-3.805485249E0,4.408775806E0,9.757332802E0
2.483585621E0,-4.173980236E0,5.835795403E0,1.039172935E1
2.493561090E0,-2.280359983E0,5.938686848E0,1.760788536E1
2.503458277E0,-1.360917926E0,7.169195652E0,5.660820007E0
2.513425777E0,-1.423131227E0,5.227719307E0,3.553341627E-1
2.523389423E0,-2.553141832E0,1.427916884E0,1.244596767E1
2.533356559E0,-3.144468069E0,3.527618885E0,7.497012615E0
2.543311663E0,-2.864507914E0,6.699903488E0,1.257757282E1
2.553277548E0,-2.804687262E0,7.578667641E0,8.528917313E0
2.563232861E0,-1.671984792E0,7.310671329E0,3.361915946E-1
2.573197705E0,-6.550352275E-2,2.933899641E0,5.538786411E0
2.583194007E0,6.598208547E-1,1.478166223E0,8.785248756E0
2.593161975E0,-7.959126234E-1,4.444668293E0,9.486644745E0
2.603136402E0,-3.364906788E0,7.411170006E0,5.050351143E0
2.613105048E0,-3.791128397E0,6.934699059E0,5.172385216E0
2.623055100E0,-3.156432152E0,3.874877214E0,8.213064194E0
2.633021871E0,-2.574677229E0,2.316252232E0,9.460323334E0
2.642993434E0,-4.880460739E0,3.728914976E0,7.693522930E0
2.652960673E0,-6.137290955E0,4.224528313E0,3.022433996E0
2.662929007E0,-5.636891842E0,2.912364244E0,9.230612755E0
2.672896350E0,-6.213861465E0,2.237289190E0,7.829914093E0
2.682861663E0,-5.483751297E0,2.606082916E0,1.418405437E1
2.692828798E0,-4.664807796E0,1.482951880E0,7.985447407E0
2.702796871E0,-5.117350101E0,1.830210209E0,6.853044033E0
2.712764111E0,-5.684748173E0,1.277169108E0,6.924828529E0
2.722737496E0,-6.091827393E0,3.003291607E0,8.854640007E0
2.732705309E0,-4.645665169E0,5.289932728E0,8.404490471E0
2.742667444E0,-4.032803535E0,5.991328716E0,5.148457050E0
2.752634684E0,-2.852543592E0,3.819842339E0,1.050658512E1
2.762602809E0,-3.108575821E0,5.280361176E0,1.259910870E1
2.772570100E0,-2.912364244E0,6.185147285E0,6.331109524E0
2.782536767E0,-1.712961912E0,4.870889664E0,1.235743332E1
2.792504007E0,1.619940877E0,2.878864765E0,1.412901974E1
2.802448955E0,5.603990555E0,4.830211639E0,1.480409431E1
2.812413902E0,6.726822853E0,8.368897438E0,4.083052635E0
2.822386715E0,6.650252342E0,6.884449959E0,1.431326675E1
2.832352496E0,8.096115112E0,3.331407309E0,1.741137314E1
2.842324267E0,7.294220924E0,6.204289913E0,8.038089752E0
2.852290621E0,5.754738331E0,7.442276478E0,5.734997749E0
2.862257913E0,2.015055656E0,6.333801746E0,4.978267670E0
2.872224319E0,2.005484581E0,5.988935947E0,1.001097202E1
2.882182600E0,6.430711150E-1,7.540382385E0,8.081160545E0
2.892148173E0,-1.047158957E0,8.926724434E0,4.540380955E0
2.902125517E0,-1.451845169E0,6.896413803E0,4.475774765E0
2.912092288E0,-2.636890650E0,3.999304056E0,5.344668388E0
2.922064371E0,-2.929114103E0,4.727320194E0,1.978565216E0
2.932031663E0,-4.193122387E0,3.774378538E0,1.075872898E0
2.941993850E0,-3.489333630E0,2.469393015E0,1.109551907E1
2.951960621E0,-2.560320139E0,3.398406267E0,9.345467567E0
2.961930621E0,-1.693520188E0,3.886841297E0,5.449952602E0
2.971897705E0,-1.102193952E0,3.058326483E0,1.256800175E1
2.981866455E0,-1.037587762E0,2.984148979E0,7.083054066E0
2.991833694E0,-1.408774376E0,1.832603097E0,9.022137642E0
3.001802444E0,-2.407179594E0,9.466604590E-1,1.443081379E1
3.011769840E0,-1.878066659E0,1.739282966E0,6.707081795E0
3.021733434E0,-1.626521230E0,9.227322340E-1,1.675783348E1
3.031700413E0,-2.091027975E0,4.438686073E-1,1.645155334E1
3.041669632E0,-4.427918434E0,4.284348965E0,2.213061810E0
3.051636871E0,-8.555537224E0,5.237290382E0,6.821937561E0
3.061601142E0,-7.786843300E0,3.247658491E0,1.955923080E1
3.071568017E0,-5.809175014E0,4.573880672E0,1.067408276E1
3.081530986E0,-3.465405464E0,6.678368092E0,4.786841869E0
3.091497444E0,-1.980958104E0,4.552345276E0,7.703094482E0
3.101478330E0,-3.333800077E0,2.658725023E0,5.394917965E0
3.111446246E0,-4.451846600E0,3.666701555E0,5.744568825E0
3.121411402E0,-4.585844517E0,4.830211639E0,5.411667347E0
3.131379059E0,-3.879662752E0,4.799104691E0,1.179242802E1
3.141347809E0,-3.510869026E0,4.403990269E0,6.594619274E0
3.151315569E0,-4.844568729E0,4.710570335E0,4.506881237E0
3.161280621E0,-4.559523582E0,1.712961912E0,8.708678246E0
3.171248069E0,-2.804687262E0,4.018446445E0,1.312822151E1
3.181218746E0,-3.537189960E0,7.518846989E0,3.900899172E0
3.191186507E0,-1.480558991E0,5.682355404E0,8.097909927E0
3.201147080E0,5.449653864E-1,1.823031783E0,1.482802296E1
3.211114111E0,9.951151013E-1,2.242074728E0,8.653642654E0
3.221079892E0,1.593619823E0,4.447061062E0,1.018564796E1
3.231046767E0,4.348955154E-1,6.309873104E0,9.644570351E0
3.241020413E0,1.474576890E-1,7.310671329E0,4.743771076E0
3.250988017E0,9.999007583E-1,5.790331841E0,8.210671425E0
3.260945725E0,3.018246651E0,4.186243057E0,7.923233986E0
3.270912288E0,2.955734253E0,5.876473427E0,9.209076881E0
3.280894163E0,3.257529020E0,7.243373394E0,5.768496990E0
3.290862288E0,1.864008784E0,6.043971062E0,7.367800236E0
3.300824267E0,2.062912226E0,5.196612358E0,9.774082184E0
3.310791715E0,6.382854581E-1,4.992923737E0,3.491726398E0
3.320762861E0,1.279860973E0,5.069493771E0,6.479464531E0
3.330730673E0,1.031007409E0,5.617749214E0,7.226623535E0
3.340689423E0,1.677368641E0,5.038387299E0,1.222552872E1
3.350656298E0,2.639881611E0,3.573082447E0,1.592244053E1
3.360623121E0,3.798605800E-1,7.224230766E0,3.273680449E0
3.370589996E0,-8.509475589E-1,5.567500114E0,4.619344234E0
3.380546871E0,-1.715354681E0,2.754437923E0,1.409552002E1
3.390512757E0,-2.256431818E0,6.142076492E0,3.652045488E0
3.400495569E0,-1.104586720E0,6.556334019E0,5.895316601E0
3.410463173E0,-2.148455620E0,4.128516197E0,1.249860954E1
3.420428955E0,-1.830210209E0,4.102195263E0,1.181874943E1
3.430396350E0,-3.077469110E0,2.495713949E0,1.369561958E1
3.440369319E0,-5.016851902E0,5.543571949E0,4.339084625E0
3.450337236E0,-4.051946163E0,5.756832123E0,4.095016956E0
3.460301455E0,-2.993720293E0,2.146361828E0,1.523270893E1
3.470268955E0,-2.469393015E0,4.130908966E0,8.986245155E0
3.480232757E0,-3.752544165E0,4.593023300E0,5.368596554E0
3.490199944E0,-3.345764160E0,2.184647083E0,1.601815224E1
3.500165830E0,-5.074279308E0,4.387240410E0,9.117850304E0
3.510132809E0,-4.028017998E0,6.786344051E0,3.422035456E0
3.520109111E0,-5.529214859E0,5.316253662E0,-3.439682424E-1
3.530077027E0,-3.795913935E0,2.428714991E0,7.214659214E0
3.540038798E0,-2.658426046E0,3.522833109E0,9.292825699E0
3.550006090E0,-1.813460469E0,9.168398857E0,1.377667665E0
3.559974736E0,-2.778366089E0,8.813961983E0,-3.375076294E0
3.569942132E0,-2.641676188E0,2.713759899E0,1.434676647E1
3.579896767E0,-2.584248543E0,1.581356645E0,1.925504303E1
3.589862861E0,1.570289880E-1,6.357729912E0,1.016171932E1
3.599843277E0,2.096710801E-1,5.816652775E0,1.205085278E1
3.609810830E0,1.505085468E0,1.368096352E0,1.674826241E1
3.619782965E0,1.052542806E0,3.293122053E0,8.088338852E0
3.629750934E0,9.376873970E-1,6.882057190E0,5.569892883E0
3.639713382E0,-3.918246925E-2,4.403990269E0,9.144171715E0
3.649680777E0,-1.504487276E0,3.465405464E0,1.119123173E1
3.659644527E0,-1.554736495E0,5.347360611E0,5.557928562E0
3.669611559E0,5.162515044E-1,5.697011471E0,7.930412292E0
3.679585569E0,-4.941178858E-1,4.140779495E0,9.568000793E0
3.689553330E0,-5.204389095E-1,4.971388340E0,1.341326618E1
3.699515673E0,-1.902294010E-1,5.435894966E0,6.024528980E0
3.709482861E0,7.531409264E-1,6.846164703E0,6.168397903E0
3.719446142E0,1.658226132E0,5.672784328E0,1.194796181E1
3.729412913E0,5.090730190E-1,6.364908218E0,8.256134987E0
3.739383225E0,6.358926296E-1,7.133303165E0,8.512166977E0
3.749350361E0,1.562513232E0,5.596213818E0,8.603095055E0
3.759321975E0,3.226422310E0,6.443871498E0,3.419642687E0
3.769289580E0,3.820141315E0,4.573880672E0,1.522313786E1
3.779260048E0,2.125125647E0,3.084647417E0,1.662622833E1
3.789227913E0,4.181756496E0,7.248158932E0,8.509475589E-1
3.799203902E0,5.517549992E0,6.939484596E0,4.892126083E0
3.809172600E0,4.682155609E0,4.741677284E0,9.879366875E0
3.819139423E0,3.082852840E0,5.258825779E0,1.030558777E1
3.829107861E0,1.596012712E0,5.986543179E0,7.544868946E0
3.839075934E0,1.658226132E0,6.024828434E0,1.894816399E0
3.849044319E0,2.788236618E0,5.938686848E0,8.208278656E0
3.859016194E0,2.551347017E-1,7.334599495E0,-3.745963812E0
3.868984944E0,-5.443671346E-1,8.019246101E0,-3.073281527E0
3.878950309E0,3.293122053E-1,2.533999205E0,8.105088234E0
3.888918694E0,1.763510346E0,-8.177471161E-1,1.533320713E1
3.898881975E0,-4.157529399E-2,5.107779026E0,1.132792187E1
3.908849840E0,-4.636093974E-2,7.346563816E0,7.571189880E0
3.918817705E0,-1.549950838E0,5.028815746E0,7.784450054E0
3.928785569E0,-2.416750908E0,3.283550978E0,9.007781029E0
3.938746038E0,-1.154836059E0,3.226123095E0,1.112423229E1
3.948713173E0,-2.694318295E0,5.895616055E0,-1.679761529E0
3.958668955E0,-4.142873287E0,3.218346536E-1,2.389741898E1
3.968634892E0,-1.954637051E0,-6.957131624E-1,3.352194977E1
3.978592080E0,9.720841795E-2,7.576274872E0,4.582255483E-1
3.988557132E0,1.023828983E0,4.667499542E0,7.530511856E0
3.998535517E0,-2.165205479E0,2.292324066E0,8.073982239E0
4.008501923E0,-1.358525038E0,9.216255188E0,-1.110090256E1
4.018471455E0,-4.396811500E-2,8.905188560E0,-1.435693622E0
4.028438173E0,-2.004886389E0,6.204289913E0,1.180917835E1
4.038404632E0,-2.270788670E0,5.242076397E0,1.055444145E1
4.048371298E0,-2.380858511E-1,8.203493118E0,8.213064194E0
4.058336298E0,1.196112275E0,5.775974751E0,4.941178858E-1
4.068302757E0,1.473978758E0,3.518047571E0,7.978269100E0
4.078262496E0,1.498505175E-1,4.480560303E0,-2.189731836E0
4.088228277E0,-9.179465771E-1,1.976172447E0,4.765306473E0
4.098205205E0,-1.255633712E0,-1.064207911E0,3.926562119E1
4.108172080E0,1.176969647E0,2.553141832E0,2.963151932E1
4.118138590E0,4.150650024E0,9.187541962E0,4.470989227E0
4.128105465E0,-1.509272933E0,7.135696411E0,6.424728632E-1
4.138076455E0,-2.905185699E0,2.277967215E0,8.064410210E0
4.148043746E0,-2.646461725E0,5.057529926E0,-1.435693622E0
4.158020986E0,-1.435095429E0,9.244969368E0,2.617149651E-1
4.167989267E0,-2.091027975E0,1.937887192E0,2.165893364E1
4.177945413E0,-1.901994944E0,1.021137118E0,2.924358368E1
4.187912444E0,2.608774900E0,7.612166882E0,3.345465183E0
4.197879111E0,1.389930844E0,7.664809227E0,3.448655605E0
4.207846090E0,-1.238883972E0,5.114957333E0,3.309572935E0
4.217816090E0,-1.758425593E0,7.748558044E0,-1.167817116E1
4.227783382E0,4.181457460E-1,-6.622136831E-1,1.787588120E1
4.237748955E0,-5.443671346E-1,-7.411768436E-1,4.521298218E1
4.247716090E0,2.228017092E0,1.063609695E1,-6.767500877E0
4.257684788E0,2.232802629E0,6.711867332E0,-1.133898854E0
4.267652027E0,2.982055247E-1,-2.021935225E0,2.638744926E1
4.277625048E0,-6.065805554E-1,8.826225281E0,-1.363879013E1
4.287592861E0,-2.333002090E-1,1.473500156E1,-2.424288177E1
4.297552861E0,-2.213061810E0,-1.141077280E0,1.344676590E1
4.307519840E0,-1.413560033E0,-4.957330227E0,3.544458389E1
4.317489892E0,1.828116536E0,4.983352184E0,1.391605854E1
4.327457184E0,4.176970959E0,9.891630173E0,1.017129040E1
4.337430934E0,-2.524427772E-1,5.807081223E0,8.931210518E0
4.347398850E0,-2.447857618E0,6.158826351E0,-6.111567974E0
4.357361923E0,-4.582255483E-1,6.436692715E0,1.458156204E1
4.367329371E0,1.283151209E-1,1.054277611E1,-1.618146300E-1
4.377282965E0,-4.606183469E-1,1.021944618E1,-1.170688438E1
4.387249007E0,-8.605188727E-1,-6.846463680E0,3.157090187E1
4.397234996E0,7.328019291E-2,-1.502393484E0,3.143660545E1
4.407203069E0,2.187339067E0,1.413649750E1,-2.154467583E1
4.417163955E0,1.318146229E0,5.153242588E0,2.324148560E1
4.427131246E0,-4.558327198E-1,-1.042343426E1,3.301915741E1
4.437097757E0,-2.972184896E0,7.008876801E0,-5.967998981E0
4.447064996E0,-1.293918848E0,7.301100254E0,-7.148258686E0
4.457034059E0,-5.483751297E0,4.039981842E0,2.199871445E1
4.467001455E0,-5.646463394E0,3.281157970E0,1.887637973E0
4.476967548E0,-3.747758389E0,9.072686195E0,1.119362450E1
4.486934788E0,-1.983350873E0,6.767201424E0,5.620141983E0
4.496902496E0,-4.664807796E0,1.330558968E1,4.703093052E0
4.506869788E0,-2.831008196E0,1.068873882E1,2.074278116E0
4.516838850E0,-2.294716835E0,1.193420291E0,1.427737427E1
4.526806298E0,-1.660020709E0,5.973083377E-1,1.675544167E1
4.536773486E0,6.167500615E-1,7.396812916E0,4.770092010E0
4.546740882E0,2.484348059E0,7.073482990E0,5.850451589E-1
4.556710673E0,9.927222729E-1,4.265206337E0,1.385384464E1
4.566678330E0,1.854437590E0,3.412763357E0,2.458685112E1
4.576651819E0,1.102792144E0,8.510073662E0,-8.256733894E0
4.586620048E0,1.035793066E0,5.548357487E0,1.459113312E1
4.596574423E0,-1.109372377E0,-1.258325577E0,2.036830521E1
4.606541246E0,6.370890141E-2,8.404789925E0,1.066301584E0
4.616512027E0,1.344467282E0,9.819545746E0,-4.957629204E0
4.626479267E0,1.579262972E0,5.256433010E0,9.589535713E0
4.636443850E0,-1.525424421E-2,4.128516197E0,1.319940805E0
4.646410777E0,-1.537986755E0,4.492524624E0,3.876971006E0
4.656375152E0,-1.037886813E-1,3.525225878E0,1.370997620E1
4.666341819E0,-1.887637973E0,1.863709688E0,1.880967903E1
4.676320882E0,3.918247223E-1,6.180361748E0,2.218086815E1
4.686288798E0,1.617548108E0,7.964210987E0,-4.665405750E0
4.696250517E0,3.750749528E-1,4.262813568E0,3.122633696E-1
4.706217809E0,-3.361915946E-1,5.201398373E0,8.557332158E-1
4.716169059E0,-9.155537486E-1,4.411168575E0,-1.843699837E1
4.726134684E0,-9.370891452E-1,-4.561318159E-1,3.188675499E1
4.736123225E0,-2.301895380E0,-1.905284971E-1,3.437917709E1
4.746091142E0,-2.012064695E0,1.331516075E1,6.244967937E0
4.756038538E0,7.794619799E-1,6.360122681E0,5.229813099E0
4.766004371E0,-4.897210598E0,-9.804590940E-1,1.119362450E1
4.775990934E0,-5.191527843E0,7.873283863E0,-2.841177702E0
4.785958850E0,-4.545166492E0,5.802295685E0,-2.577668190E0
4.795926246E0,-2.335394859E0,1.025922656E0,3.120210838E1
4.805894111E0,2.038984060E0,5.184648514E0,1.613779449E1
4.815860934E0,2.654238462E0,6.668796539E0,-1.814058661E0
4.825828694E0,1.411466241E0,1.926222295E-1,2.073709869E1
4.835777236E0,-2.591426849E0,4.530809879E0,8.198707581E0
4.845743017E0,-2.095813513E0,1.122502995E1,-7.416254520E0
4.855728746E0,6.047859192E-1,3.247658491E0,2.883889580E1
4.865696559E0,-2.715853751E-1,7.839784145E0,1.207478142E1
4.875659840E0,3.738785535E-2,1.222104263E1,-1.851835442E1
4.885627184E0,-1.746461391E0,6.053542137E0,1.129920769E1
4.895587965E0,-1.698305845E0,4.791926384E0,-4.971089065E-1
4.905554632E0,-2.778366089E0,8.845368385E0,-5.446064472E0
4.915544423E0,5.066801906E-1,-2.385943174E0,4.304149628E1
4.925513434E0,2.194517374E0,1.566999674E0,4.037200165E1
4.935492913E0,5.388337612E0,1.216361523E1,-1.640668678E1
4.945462965E0,1.282253861E0,6.913163662E0,-1.292124271E0
4.955394007E0,-1.949851394E0,2.907279432E-1,1.003968525E1
4.965360100E0,-2.670390129E0,4.269991875E0,-1.514716530E1
4.975334059E0,-2.067099571E0,6.774380207E0,-1.198684502E1
4.985300934E0,-3.166003466E0,-2.895913601E0,1.760549164E1
4.995269892E0,-1.856531262E0,-6.487241268E0,4.583541489E1
5.005236975E0,3.058924675E0,5.026422977E0,2.949034309E1
5.015191350E0,5.210371017E-1,1.410539055E1,-3.489931822E0
5.025157132E0,-3.874877214E0,7.604988575E0,3.577867985E0
5.035155725E0,-3.690330744E0,6.643074155E-1,-1.181755304E0
5.045124840E0,-2.732603550E0,1.600499272E0,3.417249918E0
5.055062705E0,-1.971386790E0,3.214159012E0,9.271290779E0
5.065028694E0,-2.227717876E0,5.218147755E0,8.801998138E0
5.075018746E0,-1.657627940E0,2.555534601E0,1.885992813E1
5.084987132E0,-1.475773335E0,2.814258575E0,2.333241272E1
5.094926611E0,-4.255335808E0,6.319444656E0,1.514656734E1
5.104892027E0,-3.918246925E-2,2.972184896E0,2.264746857E1
5.114857757E0,-5.342275620E0,8.991330147E0,-1.228624725E1
5.124823277E0,-5.303990364E0,4.952245712E0,-3.925724745E0
5.134809111E0,-2.026421785E0,-9.960123897E-2,2.738824844E1
5.144776611E0,-4.059124470E0,1.308066368E1,-1.574327755E1
5.154766507E0,-2.225025892E0,1.134467125E1,-1.620539093E1
5.164736298E0,-2.524427891E0,-2.436192513E0,3.441985703E1
5.174681663E0,-3.362514019E0,3.841377735E0,8.490632057E0
5.184648955E0,-4.573880672E0,1.581954861E1,-2.515963364E1
5.194632705E0,-5.276173949E-1,1.253240824E0,3.311277771E1
5.204601663E0,-4.734199524E0,-1.651047587E0,2.422044945E1
5.214567496E0,2.699702263E0,7.806284904E0,-1.007856941E1
5.224536142E0,-4.295116663E-1,4.549952030E0,9.848259926E0
5.234464892E0,-2.627319336E0,3.441477060E0,1.255364513E1
5.244429527E0,-1.921137452E0,4.710570335E0,-4.780261517E0
5.254416455E0,1.401894927E0,1.942672849E0,2.350708961E1
5.264383330E0,1.409073472E0,4.526023865E0,1.343958759E1
5.274333642E0,1.200897813E0,9.759725571E0,1.461416483E0
5.284298798E0,1.619940877E0,5.651248932E0,1.124895859E1
5.294314267E0,3.212065220E0,2.845365286E0,1.025294590E1
5.304284580E0,4.033401489E0,4.415954113E0,-2.046162367E0
5.314249684E0,2.292623281E0,1.528415442E0,4.942375183E0
5.324219423E0,6.981059909E-1,1.744068623E0,4.366901219E-1
5.334151611E0,1.184148073E0,4.325026989E0,2.967399120E0
5.344117496E0,2.766701281E-1,6.687939167E0,1.314018536E1
5.354080100E0,-1.573879123E0,1.155793190E1,1.015932655E1
5.364045673E0,-2.859722137E0,1.014526844E1,-9.879366755E-1
5.374044996E0,-3.816552162E-1,2.979064286E-1,1.872832298E1
5.384013955E0,6.334998012E-1,2.335394859E0,1.106441212E1
5.393958538E0,1.653440475E0,5.495715618E0,-1.344766378E0
5.403925048E0,6.131608039E-2,7.013662338E0,4.904089928E0
5.413909423E0,-8.126623631E-1,6.017649651E0,-1.037079239E1
5.423877705E0,4.325026870E-1,-2.469691992E0,2.719412994E1
5.433830569E0,1.564906001E0,-2.809772015E0,5.327888870E1
5.443797288E0,-5.276173949E-1,7.097411156E0,1.314736366E1
5.453767184E0,-1.243669510E0,7.741379261E0,1.754088593E1
5.463734215E0,-7.217051983E0,8.081459045E0,-5.572884083E0
5.473733590E0,-2.440679073E0,5.888437271E0,-1.816391754E1
5.483703902E0,1.605584025E0,-3.283849955E0,3.101786041E1
5.493644059E0,-6.789634377E-2,9.192327499E0,1.224467182E1
5.503611298E0,-1.818246126E0,1.540289879E1,-1.633729553E1
5.513627392E0,-1.681556106E0,9.753743410E-1,3.434807205E1
5.523599580E0,1.651047587E0,1.088734269E-1,1.477298832E1
5.533579840E0,1.514656782E0,1.022901726E1,-1.515673637E1
5.543552861E0,1.081256747E0,3.992125511E0,1.523031616E1
5.553456298E0,-2.787638307E-1,3.271586657E0,3.594617844E0
5.563422236E0,1.684547186E0,4.765605450E0,-1.126391315E1
5.573385309E0,2.239981174E0,-2.144268274E0,1.601576042E1
5.583350934E0,-1.286142133E-2,-2.228017092E0,1.950868225E1
5.593313330E0,-1.102193952E0,3.297907829E0,1.186421299E1
5.603278642E0,-2.165205479E0,6.518048763E0,1.732523155E1
5.613252705E0,-2.203490496E0,1.219950676E1,4.390829504E-1
5.623218902E0,-1.846959949E0,1.418674660E1,-4.674977303E0
5.633165777E0,-1.772782445E0,4.971388340E0,1.069801140E1
5.643129996E0,1.474576890E-1,-3.128017426E0,1.181396389E1
5.653105413E0,2.781656384E-2,-2.290230274E0,1.372881979E-1
5.663070777E0,1.643869162E0,6.619145870E-1,-3.118745327E0
5.673031975E0,1.203290701E0,-3.647558928E0,1.713619995E1
5.682996871E0,1.050150037E0,-2.824128866E0,3.029463005E1
5.692968173E0,-1.439880967E0,6.695117950E0,1.861346817E1
5.702933694E0,-7.289136052E-1,7.166802883E0,2.822364235E1
5.712918121E0,4.827519655E-1,1.803889155E0,1.598704624E1
5.722885569E0,-2.225025892E0,3.273979664E0,-3.781856298E0
5.732859840E0,-1.736890078E0,2.103291035E0,8.354241371E0
5.742827965E0,-3.709473372E0,7.722237110E0,-1.357418346E1
5.752771507E0,8.703892231E-1,1.475653744E1,-1.676800346E1
5.762737132E0,-3.745365620E0,1.274297714E1,6.774080753E0
5.772712132E0,-1.444666624E0,6.748058796E0,2.350948334E1
5.782678694E0,-1.171585798E0,3.750450373E0,1.965015793E1
5.792663017E0,-3.142075300E0,1.337019539E1,1.194078350E1
5.802631350E0,-3.293122053E0,1.154835987E1,-7.665407181E0
5.812578538E0,-4.276871204E0,9.690931439E-2,1.336780262E1
5.822544736E0,-1.767996788E0,-9.470493317E0,2.186471558E1
5.832531819E0,1.588834286E0,8.015955985E-2,1.791655922E1
5.842500100E0,3.391526937E0,8.287241936E0,2.541177750E0
5.852460361E0,-1.046859939E-2,5.993721485E0,1.882403755E1
5.862427809E0,-3.433700502E-1,2.857329369E0,1.883839417E1
5.872382444E0,6.598208547E-1,7.990531921E0,1.698305845E0
5.882348642E0,6.574280262E-1,7.576274872E0,7.300800800E0
5.892334215E0,-7.767700553E-1,6.791129589E0,-1.861915112E0
5.902302340E0,-3.199502945E0,8.028817177E0,-3.020639420E0
5.912268225E0,-1.557129383E0,3.161516905E0,9.658927917E0
5.922236090E0,-1.636092424E0,1.246062398E0,1.371954727E1
5.932185361E0,6.215356588E-1,2.981756210E0,1.414337635E1
5.942151350E0,3.508476317E-1,5.871687889E0,1.377458286E1
5.952132913E0,1.401894927E0,2.699403048E0,5.730212212E0
5.962100465E0,1.474576890E-1,-2.376372099E0,1.427019596E1
5.972066038E0,-4.031906128E-1,8.916255236E-1,9.934401512E0
5.982033382E0,1.203290701E0,4.679463863E0,4.030410767E0
5.991990361E0,3.556332588E-1,7.980960846E0,1.973390770E1
6.001956663E0,2.436192513E0,1.255633640E1,1.475773335E0
6.011935257E0,2.651845694E0,1.453400517E1,2.482553571E-2
6.021902757E0,6.789634228E-1,7.303493023E0,1.865414619E1
6.031867705E0,-6.906284094E-1,5.196612358E0,-3.343969584E-1
6.041834944E0,2.606382132E0,-2.773879766E0,1.059990501E1
6.051793277E0,9.759725332E-1,-2.311765671E0,2.244407845E1
6.061759632E0,3.590430260E0,3.697808266E0,-1.518305779E1
6.071741194E0,4.332504272E0,2.596212626E-1,8.485846519E0
6.081709059E0,2.709273338E0,2.380858511E-1,2.005933189E1
6.091676559E0,3.580260873E-1,7.487740040E0,5.454738140E0
6.101644371E0,-1.154836059E0,7.913961887E0,1.322632694E1
6.111594215E0,-1.322632670E0,6.079863071E0,7.329514980E0
6.121560205E0,2.431706041E-1,7.236194611E0,-1.323230863E0
6.131545569E0,-8.174480200E-1,7.628916740E0,5.215456009E0
6.141513486E0,-1.856531262E0,5.883651733E0,6.644868374E0
6.151487132E0,-4.425525665E0,4.063910007E0,1.259910870E1
6.161455621E0,-3.254537821E0,4.068696022E0,1.508435440E1
6.171400257E0,-1.796710730E0,7.779963493E0,-4.780261517E0
6.181366350E0,-1.487737536E0,3.671487331E0,-4.085744619E-1
6.191345621E0,-4.923531532E0,-1.179362416E0,1.662383652E1
6.201313017E0,-3.889234066E0,1.698604941E0,2.526431847E1
6.211304215E0,-2.620140791E0,5.912365437E0,-1.459621787E0
6.221274007E0,-1.188634634E0,4.116552353E0,2.597080040E1
6.231232236E0,-1.044766188E0,6.058327675E0,3.927220106E0
6.241200882E0,-1.554736495E0,9.719047546E0,-2.006979942E1
6.251172340E0,-1.459023595E0,-1.086042404E0,7.078268528E0
6.261141246E0,-3.941876173E0,-5.350949764E-1,2.956930542E1
6.271105621E0,-3.711866140E0,4.207778454E0,2.027019882E1
6.281074059E0,-2.093719840E-1,1.698604941E0,4.438685989E1
6.291016194E0,3.460619748E-1,1.921137452E0,1.686790466E1
6.300981975E0,4.758726120E0,8.201100349E0,-1.296371460E1
6.310975465E0,2.558525562E0,5.586642742E0,-4.562514782E0
6.320944059E0,8.201399446E-1,9.563513756E0,-1.141077280E0
6.330913642E0,2.814557552E-1,1.260419369E1,-6.588038921E0
6.340882340E0,-9.610173702E-1,3.740879059E0,2.091177368E1
6.350817080E0,-3.314059377E-1,-1.978864312E0,3.543501282E1
6.360782340E0,2.747558594E0,3.601796389E0,1.382722473E1
6.370775934E0,7.830512047E0,5.605785370E0,8.361419678E0
6.380744059E0,2.105983019E0,1.538285851E0,1.323589802E1
6.390695830E0,9.305089116E-1,5.857330799E0,5.593222752E-2
6.400662288E0,2.419442892E0,9.826724052E0,-8.948558807E0
6.410641142E0,3.137887716E0,1.190967655E1,-1.007139015E1
6.420608850E0,2.232802629E0,9.805189133E0,-1.307617760E1
6.430568746E0,-5.084748268E-1,-1.267896891E0,1.526022673E0
6.440535621E0,4.683950245E-1,-8.445766449E0,4.188725662E1
6.450501194E0,2.405085802E0,-3.963710785E0,4.418586349E1
6.460467965E0,5.175376415E0,7.916354656E0,4.664807796E0
6.470416246E0,4.282255173E0,1.029123116E1,5.916851997E0
6.480381142E0,-4.630111754E-1,3.949054718E0,1.461266899E1
6.490366246E0,1.411466241E0,7.681559086E0,-5.018945336E-1
6.500333173E0,2.443371058E0,6.597012043E0,2.941078186E0
6.510307080E0,-1.123729348E0,2.246860504E0,1.294397449E1
6.520274736E0,-1.686939895E-1,-3.053839803E-1,1.180678558E1
6.530227652E0,4.701298237E0,-2.239981174E0,2.167089653E1
6.540193746E0,3.860819340E0,7.140481949E0,1.167488098E1
6.550177548E0,3.681357622E0,1.153161049E1,-1.123519993E1
6.560145465E0,3.056531906E0,9.970592499E0,-1.749153376E0
6.570110777E0,5.235197067E0,7.552346706E0,-4.684548378E0
6.580078434E0,5.292624474E0,5.557928562E0,-6.698108673E0
6.590052548E0,4.703691006E0,1.018744230E0,1.018804073E1
6.600020830E0,5.760720372E-1,1.193420291E0,2.657409096E1
6.609980882E0,1.617548108E0,8.792427063E0,1.661905098E1
6.619948330E0,4.713262558E0,8.790034294E0,1.999950981E1
6.629911663E0,1.512263894E0,2.615654230E0,1.784955978E1
6.639878642E0,-1.561915040E0,1.110778141E1,-6.358926296E-1
6.649849267E0,-1.578664780E0,9.961021423E0,-1.432612801E1
6.659816611E0,6.167500615E-1,1.332203984E0,1.093519974E1
6.669776142E0,1.212862015E0,1.071386337E0,2.163021851E1
6.679742705E0,1.284646630E0,7.504489899E0,5.634499073E0
6.689717600E0,1.497906923E0,3.003291607E0,7.279265404E0
6.699684996E0,6.622136831E-1,-1.196411322E-3,1.133749294E1
6.709639944E0,-1.121336460E0,3.321835995E0,-5.151448250E0
6.719606038E0,-4.454239368E0,9.299107194E-1,5.859424591E0
6.729582132E0,-4.832604408E0,-2.093719721E0,3.120928574E1
6.739549267E0,-2.816651344E0,3.242872953E0,1.501017666E1
6.749521559E0,-2.438286304E0,8.452646255E0,9.347860336E0
6.759489215E0,-4.645665169E0,9.661619186E0,-1.643869162E0
6.769464632E0,-8.246563911E0,8.067102432E0,-1.567149258E1
6.779433069E0,-7.662416458E0,6.467799664E0,-1.211366463E1
6.789392861E0,-5.615356445E0,9.921240807E-1,-8.515158653E0
6.799360361E0,-5.464608669E0,-9.161520004E0,4.792554474E1
6.809321767E0,-5.280062199E0,1.372882009E0,5.230710220E1
6.819288642E0,-4.202693939E0,1.670309830E1,-2.818116951E1
6.829249267E0,-7.817949772E0,4.992923737E0,-5.424529076E0
6.839215517E0,-5.890830040E0,-1.497697639E1,4.052514267E1
6.849195205E0,-3.733401537E0,-5.393123150E0,1.024098206E1
6.859162809E0,3.269194067E-1,3.824627876E0,-2.589632273E0
6.869119007E0,-2.057528257E0,4.499702930E0,2.395245361E1
6.879085413E0,-4.949852943E0,6.807879448E0,3.218346536E-1
6.889047080E0,-5.313561916E0,1.846959949E0,6.118148327E0
6.899013017E0,-2.107777596E0,1.078564763E0,2.172593307E1
6.908998798E0,-1.971386790E0,1.236939716E1,-2.028515434E1
6.918966715E0,-4.861318111E0,1.683709717E1,-2.224607277E1
6.928931298E0,-6.376573086E0,2.476571500E-1,2.372274208E1
6.938898902E0,-5.162814140E0,-3.858426571E0,4.804997253E1
6.948858121E0,2.312064916E-1,1.202722359E1,9.035896659E-1
6.958824840E0,2.582453728E0,2.310270309E1,-1.423729515E1
6.968808277E0,-4.140480518E0,2.797508717E0,6.290431499E0
6.978776663E0,-1.846959949E0,-1.223330593E1,3.009363365E1
6.988733486E0,2.860021353E0,-3.712464333E0,2.048076630E1
6.998700725E0,5.668596745E0,6.910770893E0,4.727021217E0
7.008658121E0,-1.004088163E0,5.653641701E0,2.131885338E1
7.018624371E0,1.283151209E-1,1.830210209E0,1.720559120E1
7.028605100E0,2.378764868E0,8.191529274E0,-1.499881077E1
7.038572809E0,4.507180691E0,6.903592587E0,-2.005484581E0
7.048543902E0,1.356431365E0,2.342573404E0,2.306411743E1
7.058511871E0,1.411466241E0,8.909974098E0,1.370758343E1
7.068469111E0,3.140280724E0,4.497310162E0,1.118405342E1
7.078436038E0,1.315753341E0,5.327021480E-1,3.299044418E1
7.088409840E0,3.161816120E0,7.267600536E0,-9.894321442E0
7.098377444E0,5.139483929E0,5.869294643E0,2.464607239E0
7.108355361E0,4.682155609E0,-3.427419424E0,2.960759163E1
7.118324007E0,3.554538012E0,8.098209381E0,-5.565705299E0
7.128266455E0,3.235993624E0,9.213862419E0,-8.742775917E0
7.138232444E0,-4.534398913E-1,2.455035925E0,3.310081482E1
7.148212548E0,3.104388237E0,4.427918434E0,1.773470497E1
7.158179944E0,3.906282902E0,8.174779892E0,1.118883896E1
7.168152184E0,2.510669231E0,1.937887192E0,2.031327057E1
7.178120048E0,2.862414122E0,4.298706055E0,-5.017449856E0
7.188071923E0,4.009174347E0,8.733802289E-2,-1.240110207E1
7.198038173E0,4.820939541E0,1.933101535E0,2.438286304E0
7.208018850E0,3.056531906E0,1.184746265E1,-3.047498894E1
7.217986559E0,-2.807080030E0,2.213360965E-1,4.820101929E1
7.227958434E0,2.814557552E-1,-5.977271080E0,7.623951721E1
7.237926559E0,5.098805904E0,1.752174377E1,-1.743859291E1
7.247876871E0,9.743574142E0,1.491924953E1,-5.036831665E1
7.257843173E0,-4.044767380E0,3.051147938E0,-3.178565741E0
7.267810934E0,1.777867198E0,-4.011567116E0,2.664826775E1
7.277777340E0,7.220342159E-1,5.301896572E0,1.054487038E1
7.287761715E0,-6.978068948E-1,7.267600536E0,1.889821434E1
7.297729944E0,9.720841795E-2,2.912364244E0,1.625982857E1
7.307688121E0,4.875974178E0,2.670689106E0,5.493023396E0
7.317655361E0,6.087340832E0,3.956233025E0,4.549952030E0
7.327622913E0,2.503490746E-1,2.555534601E0,7.705487251E0
7.337590152E0,-1.887637973E0,7.607381344E0,1.063340473E1
7.347567496E0,-8.318049908E-1,8.658429146E0,-4.348955154E-1
7.357535725E0,1.756331801E0,1.605284929E0,2.703859711E1
7.367490257E0,1.203290701E0,1.256231815E-1,1.887907219E1
7.377457080E0,-2.093719840E-1,8.234600067E0,-4.485944271E0
7.387451975E0,1.211366430E-1,3.348157167E0,5.670391560E0
7.397421663E0,-1.389631748E0,5.730511189E0,4.151547253E-1
7.407381923E0,-2.752045155E0,7.202695370E0,-1.312403393E1
7.417350621E0,-4.597808838E0,3.951447487E0,2.031566238E1
7.427309163E0,-2.627319336E0,4.980959415E0,1.285783291E1
7.437276871E0,-3.731008768E0,7.363313675E0,7.849056244E0
7.447233173E0,-4.229014874E0,-2.642274380E0,3.992185211E1
7.457199684E0,-4.650450706E0,-4.417748749E-1,2.390699005E1
7.467181350E0,-2.316252232E0,3.982554197E0,-2.357528448E0
7.477149371E0,-6.690930128E-1,7.456633449E-1,9.728618622E0
7.487109163E0,-3.367299557E0,2.984148979E0,-8.098807335E0
7.497076350E0,-3.817449331E0,7.858926773E0,-1.397169113E1
7.507048434E0,-3.472583771E0,8.445467949E0,-2.699702263E0
7.517016142E0,-5.031208515E0,4.662714005E0,1.382004642E1
7.526977705E0,-3.910769463E0,3.039183855E0,3.931138229E1
7.536944736E0,-1.504487276E0,7.020840645E0,1.536192131E1
7.546904319E0,-1.748854280E0,9.745368004E0,-1.744367719E0
7.556870621E0,-2.292324066E0,3.192623615E0,4.157230377E0
7.566829944E0,-1.789532185E0,1.665105462E0,-3.200101137E0
7.576795517E0,-3.098705411E-1,3.676272869E0,-5.237589836E0
7.586774944E0,-3.472583771E0,4.494917393E0,2.091177368E1
7.596741871E0,-3.290729284E0,4.126123428E0,1.827817345E1
7.606707965E0,-2.086242199E0,1.045065284E0,3.077349472E1
7.616674840E0,3.508476317E-1,3.652344704E0,2.485993195E1
7.626650361E0,1.155434251E0,7.961818218E0,-9.142676353E0
7.636618121E0,-4.677968323E-1,1.543370634E-1,1.682722664E1
7.646581455E0,-1.471585929E-1,5.814260006E0,1.389691544E1
7.656548746E0,4.348955154E-1,1.383470249E1,-2.122852516E1
7.666500361E0,-9.059824944E-1,3.360121250E0,1.295593834E1
7.676466038E0,-2.016850471E0,1.396810174E0,2.381606293E1
7.686464059E0,2.323729992E0,7.997710705E0,-8.917451859E0
7.696432965E0,4.763511658E0,4.942674160E0,8.794819832E0
7.706386663E0,-1.420738399E-1,-2.938984394E0,3.046960449E1
7.716354059E0,-2.498106956E0,4.655535698E0,1.839542198E1
7.726306298E0,-1.061815023E-1,4.157529354E0,4.267300129E0
7.736272132E0,3.166601658E0,1.633998752E0,1.691097450E1
7.746259319E0,3.178565741E0,5.280361176E0,-1.272443295E1
7.756227288E0,1.514656782E0,8.663214684E0,-1.086401272E1
7.766193798E0,-9.900303930E-2,1.310668588E0,1.312822151E1
7.776161611E0,-1.652842283E0,-2.168495506E-1,2.928665352E1
7.786126194E0,1.361217022E0,4.396811485E0,2.074427605E1
7.796093642E0,6.195316792E0,1.152921772E1,-4.372883439E-1
7.806042652E0,9.113663435E-1,6.841379166E0,-1.870977974E1
7.816008277E0,-3.259323597E0,1.059422255E0,2.919542789E0
7.825976559E0,-1.130907774E0,-1.618146300E-1,6.963113785E0
7.835942444E0,3.949353695E0,7.289135933E0,6.539285183E0
7.845934632E0,-4.079762697E-1,-9.326026440E-1,3.565754318E1
7.855903173E0,-3.815056562E0,-1.523928881E0,7.244210815E1
7.865845100E0,1.550549030E0,-3.173480928E-1,9.613464355E0
7.875810934E0,4.349254131E0,1.427916884E0,-1.338036537E1
7.885774736E0,4.663012981E0,6.506084919E0,2.950649500E0
7.895740361E0,4.217648983E0,1.757438469E1,-2.279193497E1
7.905720621E0,5.752345562E0,1.478046513E1,-1.324158096E1
7.915687705E0,2.436192513E0,-3.173780203E0,3.870301056E1
7.925664319E0,-4.387240410E0,-3.621237993E0,3.620370483E1
7.935632392E0,4.014258862E0,1.181635666E1,-2.153031921E1
7.945584267E0,9.894321442E0,9.460622787E0,-1.001396275E1
7.955550673E0,3.109174013E0,9.346963167E-1,1.429173183E1
7.965512548E0,-3.980161428E0,3.948157281E-2,1.628375626E1
7.975478486E0,-5.201098919E0,4.415954113E0,4.247649002E1
7.985470048E0,-1.372881979E-1,1.545464277E0,3.748685837E1
7.995438538E0,6.051448345E0,5.242076397E0,-6.305386543E0
8.005414840E0,3.386741400E0,4.612165451E0,-8.931808472E0
8.015384163E0,3.772284985E0,8.732605934E0,1.636092424E0
8.025317340E0,5.967699528E0,1.604447365E1,-2.099133492E1
8.035282965E0,7.899903774E0,1.329362488E1,-8.886344910E0
8.045286090E0,4.646263599E0,1.971386790E0,1.613061523E1
8.055255517E0,3.781856298E0,-2.345265388E0,2.023670006E1
8.065221402E0,1.053111172E1,2.242074728E0,1.133031464E1
8.075190465E0,9.460921288E0,4.274777889E0,1.871636009E1
8.085137705E0,8.692526817E0,1.315454245E0,2.647359085E1
8.095104527E0,4.768297195E0,3.173480988E0,9.735796928E0
8.105074788E0,2.122732878E0,4.547559261E0,-2.208874464E0
8.115041975E0,2.017448664E0,6.199504375E0,3.161217928E0
8.125013798E0,2.587239504E0,4.952245712E0,-2.946461916E0
8.134981455E0,2.312064916E-1,-6.311069727E-1,1.274507046E1
8.144942809E0,1.674975872E0,7.480561733E-1,1.460549068E1
8.154909788E0,-1.760818362E0,7.150053024E0,-1.175713444E1
8.164881038E0,-4.121337891E0,6.101398468E0,3.268894911E0
8.174848486E0,-4.655236244E0,-1.782652855E0,1.349701500E1
8.184806194E0,-4.066302776E0,-7.770691514E-1,1.569242954E1
8.194772600E0,-6.656832695E0,6.640082836E0,-3.767499208E0
8.204742757E0,-1.086820030E1,3.489333630E0,-1.615155339E0
8.214709527E0,-9.465108871E0,-2.903092146E0,4.378117752E1
8.224701663E0,-3.199502945E0,-9.493523836E-1,5.059743118E1
8.234671038E0,2.161017895E0,-1.064207911E0,6.788437843E0
8.244612600E0,-5.677569866E0,3.111267567E0,1.243400383E1
8.254579111E0,-1.044676495E1,4.689034939E0,-4.804189682E0
8.264557600E0,-9.740582466E0,9.446265221E0,-2.276800728E1
8.274525361E0,-4.743771076E0,1.026969528E1,-9.300602913E0
8.284492861E0,-4.985744953E0,1.119153023E1,-1.340907860E1
8.294460569E0,-6.711867332E0,1.448584938E1,-1.554228020E1
8.304424527E0,-2.174776793E0,-5.880361795E-1,2.837917519E1
8.314391871E0,1.322931767E0,-6.238088608E0,6.575506592E1
8.324371559E0,2.510669231E0,4.097409725E0,1.140927792E1
8.334340100E0,1.857428551E-1,1.448584938E1,-1.885334778E1
8.344298434E0,8.153542876E-1,4.222135544E0,1.035194874E0
8.354265934E0,-3.726222992E0,1.820638895E0,-1.902593136E0
8.364250048E0,-5.119743347E0,4.806283474E0,-9.659825325E0
8.374219215E0,-4.660022259E0,2.711367130E0,3.203779984E1
8.384173121E0,-2.742174864E0,4.799104691E0,3.895694733E1
8.394140777E0,-1.068694472E0,3.996911049E0,1.405244923E1
8.404079736E0,-1.344168067E0,-3.803391695E0,1.789502335E1
8.414044423E0,-1.430309772E0,-3.240779161E0,5.117350101E0
8.424032080E0,2.838485837E-1,4.995316505E0,-1.068455124E1
8.433999111E0,1.253539920E0,5.000102043E0,6.819544315E0
8.443970830E0,4.827519655E-1,5.627320766E0,3.764508247E0
8.453938330E0,1.380359530E0,4.454239368E0,4.212265015E0
8.463927132E0,3.207279682E0,4.514060020E0,1.968365860E1
8.473896767E0,4.651049137E0,1.259462166E1,-8.077271461E0
8.483845777E0,4.035794258E0,1.696630859E1,-1.284945726E0
8.493813277E0,1.543370605E0,7.238587379E0,1.338694572E1
8.503781507E0,8.201399446E-1,3.982554197E0,1.068126106E1
8.513749059E0,-4.127618968E-1,-1.339681625E0,1.182592773E1
8.523697184E0,5.158626556E0,-6.365207195E0,5.705236816E1
8.533662809E0,6.667002201E0,-6.398706913E0,3.719942093E1
8.543647965E0,6.322136402E0,1.413560033E0,6.649653912E0
8.553615517E0,2.831307411E0,6.788736820E0,-8.084450722E0
8.563582861E0,-2.859423161E-1,1.153400326E1,-1.729472351E1
8.573550413E0,-1.926222295E-1,1.159143066E1,-1.962922096E1
8.583673277E0,1.926222205E0,7.748558044E0,-9.192925453E0
8.593656507E0,-1.615155339E-1,4.265206337E0,-6.011069775E0
8.603510882E0,-5.970092416E-1,9.118149757E0,-1.061994553E1
8.613481090E0,-1.988136530E0,1.238854027E1,-2.431945229E1
8.623381559E0,-2.723032236E0,-6.659524441E0,3.226033401E1
8.633344736E0,3.777070522E0,-1.389003658E1,7.853303528E1
8.643307132E0,9.017950058E0,4.968995094E0,5.108586502E1
8.653270205E0,1.140748310E1,1.653769493E1,-4.194079590E1
8.663269215E0,-1.234098315E0,3.744767308E-1,3.790829182E0
8.673235934E0,-8.452346802E0,-1.256142139E1,2.260200500E1
8.683204892E0,-2.100599289E0,1.084666538E1,-2.696501732E1
8.693171819E0,9.640084505E-1,1.049970531E1,-5.850451469E0
8.703146767E0,-3.963411570E0,5.783153057E0,3.045494843E1
8.713114527E0,-3.793521166E0,6.803093910E0,-8.524729729E0
8.723066402E0,-2.047957182E0,2.929114103E0,1.734916115E1
8.733032496E0,-2.545963287E0,-3.056232691E0,5.247699356E1
8.742974007E0,1.105184913E0,5.507679462E0,1.072941685E1
8.752937600E0,2.297408819E0,3.372085333E0,3.924827337E0
8.762903798E0,1.689931005E-1,-4.258327007E0,3.209283829E1
8.772867652E0,6.550351977E-1,5.342574596E0,-5.218447208E0
8.782844944E0,-4.199403822E-1,6.886842728E0,-9.176176071E0
8.792810205E0,-1.222134113E0,-1.588834286E0,2.983490944E1
8.802793434E0,-4.366901219E-1,7.164410114E0,4.865804672E0
8.812760465E0,-2.902792931E0,1.636541176E1,-1.626521111E1
8.822724996E0,-1.456630826E0,1.468714523E1,1.506999683E1
8.832691767E0,-3.561118364E0,1.295115280E1,9.442676306E-1
8.842649059E0,-1.552343726E0,2.266003132E0,7.334001660E-1
8.852614892E0,-2.000100613E0,-5.754738331E0,2.348794746E1
8.862610361E0,-1.502094388E0,-2.242373943E0,7.628916740E0
8.872579163E0,4.253541470E0,-1.013958573E0,1.535952854E1
8.882535621E0,1.600798368E0,-7.387840152E-1,2.019602203E1
8.892503121E0,-9.562317729E-1,8.890831947E0,3.529413342E-1
8.902467027E0,-1.648056626E0,1.387777328E1,-1.027747250E1
8.912434215E0,-3.281157970E0,1.829043770E1,-1.065822983E1
8.922399007E0,-3.750151396E0,1.483071518E1,-2.466910362E1
8.932365934E0,-2.213061810E0,-3.719642878E0,4.116552353E0
8.942322809E0,7.292127013E-1,-4.969294548E0,3.595455170E1
8.952288694E0,2.745165825E0,8.052745819E0,-1.180020523E1
8.962262652E0,3.604189157E-1,1.462732506E1,-6.154638767E0
8.972229371E0,1.307079345E-1,5.853442550E-1,1.269960690E1
8.982201611E0,-2.093420744E0,-1.166830063E1,3.676631927E1
8.992168850E0,-1.820638895E0,-8.060222626E0,4.637649155E1
9.002134059E0,5.888736725E0,3.082254648E0,4.631308079E0
9.012101090E0,6.053841114E0,3.072683334E0,9.227322340E-1
9.022072132E0,8.577371597E0,-4.303790569E0,2.926990318E1
9.032039527E0,2.608774900E0,2.869293451E0,1.037886813E-1
9.041991975E0,-2.715853751E-1,7.171588421E0,9.658927917E0
9.051957861E0,-2.816651344E0,8.328219414E0,2.024866295E1
9.061953642E0,-9.156435013E0,9.101400375E0,-1.430907965E0
9.071922548E0,-2.905185699E0,2.792723179E0,2.757010269E1
9.081871715E0,-1.214955688E0,4.114159584E0,1.020748234E1
9.091838590E0,-6.604190350E0,1.531436443E1,-1.424686623E1
9.101809007E0,-2.280359983E0,1.100967598E1,-9.592227936E-1
9.111776246E0,-1.173978567E0,4.200600147E0,6.867401123E0
9.121748225E0,2.175374985E0,3.932304859E0,-1.570289880E-1
9.131715934E0,6.071787477E-1,2.342573404E0,2.150310135E1
9.141680725E0,-2.333002090E0,1.234098315E0,2.795325279E1
9.151648121E0,-1.289133191E0,2.373680115E0,5.725426197E0
9.161610673E0,-3.200400248E-2,3.601198196E-1,1.625982857E1
9.171577548E0,-2.397608280E0,1.327418327E0,8.078767776E0
9.181551663E0,-2.536391973E0,5.667998791E0,-5.632704735E0
9.191519319E0,-2.646461725E0,6.300302029E0,5.222634315E0
9.201487027E0,-3.778865099E0,8.416753769E0,-9.161519408E-1
9.211454684E0,-3.403192043E0,1.255633640E1,-3.607180119E-1
9.221417913E0,-3.575475216E0,1.245823097E1,5.768496990E0
9.231385100E0,-2.962613583E0,7.020840645E0,5.002494812E0
9.241353902E0,-8.054839373E-1,-4.847260475E0,1.677936935E1
9.251321246E0,-1.628913999E0,-2.979662418E0,1.410987663E1
9.261283538E0,1.618146300E-1,4.157529354E0,-1.111047363E1
9.271250361E0,1.330110312E0,2.105684042E0,9.443573952E0
9.281230777E0,-3.290131092E-1,-3.334099293E0,2.268844604E1
9.291198955E0,-6.400800347E-1,3.385843933E-1,1.132074261E1
9.301160777E0,1.363609791E0,2.263610125E0,9.774082184E0
9.311128277E0,3.154637575E0,3.331407309E0,1.567089462E1
9.321092236E0,3.391526937E0,3.913162231E0,1.665972900E1
9.331059423E0,3.576073408E0,4.372883320E0,1.612104416E1
9.341030777E0,3.125923634E0,6.170790672E0,8.220243454E0
9.350998382E0,3.602394581E0,4.842175961E0,2.179562330E0
9.360956559E0,9.017950296E-1,-1.734796405E0,1.481127262E1
9.370923121E0,-1.253240854E-1,-1.143470168E0,1.713619995E1
9.380895100E0,-3.290131222E-3,4.439882278E0,3.618546009E0
9.390862288E0,1.734796405E0,4.459024906E0,1.730608940E1
9.400832496E0,7.052844763E-1,3.305086374E0,1.736590958E1
9.410799944E0,-1.444666684E-1,5.644070625E0,2.979363203E0
9.420766507E0,1.977069676E-1,3.929912090E0,9.026923180E0
9.430733850E0,1.169791222E0,2.450250387E0,1.437099361E1
9.440698382E0,2.362015009E0,2.984148979E0,1.691576004E1
9.450665413E0,2.680559635E0,3.443870068E0,1.392802238E1
9.460637340E0,2.687737942E0,4.415954113E0,7.403692245E0
9.470604840E0,2.015055656E0,3.846163273E0,4.655236244E0
9.480565986E0,1.043868884E-1,5.720939636E0,3.383750439E0
9.490532861E0,-2.003988996E-2,6.798308372E0,5.296812057E0
9.500503902E0,-1.298704505E0,5.581857204E0,8.385348320E0
9.510471194E0,-1.006481051E0,5.941079617E0,2.524427891E0
9.520435673E0,-6.568298340E-1,6.281159401E0,1.810768485E0
9.530402652E0,-5.946164131E-1,6.108577251E0,2.878565550E0
9.540368434E0,-1.693520188E0,8.028817177E0,-1.977069676E-1
9.550335309E0,-3.177967548E0,1.020030403E1,7.764709592E-1
9.560295413E0,-4.837389946E0,1.296311665E1,-3.499503136E0
9.570261611E0,-4.851747036E0,7.973782539E0,-2.434098721E0
9.580246038E0,-3.680759430E0,8.581260443E-1,1.104766178E1
9.590214007E0,-3.055933714E0,-4.345964193E-1,1.186899853E1
9.600171455E0,-3.099004507E0,2.924328327E0,1.339412403E1
9.610138382E0,-2.584248543E0,4.581058979E0,1.300140190E1
9.620107913E0,-1.193420291E0,-1.241575837E0,2.582483673E1
9.630075100E0,1.890329838E0,-4.342075825E0,3.314388275E1
9.640050882E0,1.040578723E0,3.111267567E0,1.983350873E0
9.650018902E0,-3.601198196E-1,5.395216942E0,-5.637490273E0
9.659990309E0,-2.337787628E0,1.902294010E-1,9.865009308E0
9.669958642E0,-2.347358942E0,6.643074155E-1,6.771687984E0
9.679916507E0,-1.470987678E0,3.029612541E0,8.021339417E0
9.689883798E0,-3.481557071E-1,3.139981508E0,1.494556999E1
9.699854944E0,8.225327730E-1,5.160421371E0,1.041326523E1
9.709822652E0,2.168196440E0,5.993721485E0,9.218647957E0
9.719784944E0,2.958127022E0,6.053542137E0,1.154327583E1
9.729752080E0,1.435693622E0,6.522834301E0,6.865008354E0
9.739722184E0,3.436691463E-1,4.677071095E0,9.041280746E0
9.749689580E0,9.424729943E-1,2.383251429E0,1.488574982E1
9.759644267E0,1.830509305E0,2.057827473E0,1.086580753E1
9.769610361E0,1.773081541E0,5.853442550E-1,1.428455257E1
9.779603486E0,1.787438512E0,4.319044948E-1,1.586710644E1
9.789572288E0,2.280659199E0,2.888436079E0,8.526524544E0
9.799539736E0,4.923232496E-1,3.412763357E0,8.684749603E0
9.809508434E0,-1.152443171E0,3.400799274E0,1.120798111E1
9.819479267E0,-1.588235974E0,3.209373474E0,8.749356270E0
9.829448121E0,-1.444666624E0,2.335394859E0,9.683155060E0
9.839411246E0,-1.403988719E0,1.997707844E0,8.624629974E0
9.849379527E0,-1.456630826E0,1.648355722E0,7.559226036E0
9.859344163E0,-8.581260443E-1,1.645962834E0,1.055922699E1
9.869312080E0,-7.576274872E-1,2.483749866E0,8.232207298E0
9.879280517E0,-1.018445134E0,2.594118834E0,8.354241371E0
9.889248434E0,-2.059921265E0,1.415952802E0,1.186182022E1
9.899216715E0,-1.930708766E0,2.366501570E0,1.145234871E1
9.909184684E0,-1.118943691E0,3.278765202E0,1.182353497E1
9.919151142E0,-1.241276741E0,2.950649500E0,1.312104321E1
9.929118955E0,-1.645663738E0,2.428714991E0,9.579964638E0
9.939074996E0,-2.179562330E0,1.114457130E0,7.575975418E0
9.949041559E0,-1.796710730E0,8.374879137E-3,9.826724052E0
9.958993694E0,-1.408774376E0,4.677968323E-1,9.601499557E0
9.968958798E0,-8.389834166E-1,6.547361016E-1,1.133988571E1
9.978936767E0,-4.079762697E-1,6.595217586E-1,1.217767239E1
9.988903173E0,-2.763710022E-1,1.482951880E0,1.049701405E1
9.998872913E0,-4.271188378E-1,2.649153709E0,9.879366875E0
1.000883968E1,-4.438686073E-1,3.405584812E0,8.473882675E0
1.001881406E1,-4.941178858E-1,3.726522207E0,8.909674644E0
1.002878156E1,-5.012963414E-1,4.205385685E0,8.612666130E0
1.003874229E1,-1.049551845E0,4.547559261E0,7.485048294E0
1.004870911E1,-1.470987678E0,4.554738045E0,8.677571297E0
1.005866406E1,-1.787139416E0,5.105386257E0,7.683951855E0
1.006862963E1,-2.028814554E0,5.658427238E0,6.616154671E0
1.007861765E1,-2.337787628E0,5.756832123E0,7.810771465E0
1.008858552E1,-2.845365286E0,6.077470303E0,7.162017345E0
1.009854864E1,-3.158824921E0,6.106184483E0,6.745367050E0
1.010851599E1,-3.319443226E0,5.771189213E0,7.657630444E0
1.011848151E1,-3.556332588E0,5.407180786E0,7.331907749E0
1.012844869E1,-3.570689678E0,5.478965759E0,6.790830612E0
1.013842442E1,-2.874078989E0,5.189434052E0,7.437191963E0
1.014839244E1,-2.450250387E0,4.873282433E0,7.018148899E0
1.015833812E1,-2.636890650E0,4.399204254E0,5.754140377E0
1.016830390E1,-1.794317842E0,4.265206337E0,6.754938126E0
1.017827979E1,-9.661021084E-2,4.966602325E0,6.592226505E0
1.018824656E1,1.270289779E0,6.067899227E0,7.516155243E0
1.019822494E1,1.251147151E0,6.170790672E0,9.115457535E0
1.020819286E1,2.086840391E0,6.386443615E0,9.091529846E0
1.021816182E1,2.433799744E0,5.083850861E0,1.069801140E1
1.022812984E1,3.805784464E0,3.750450373E0,1.248664570E1
1.023809151E1,5.070092201E0,3.477369547E0,1.121755219E1
1.024805885E1,5.580062389E0,3.154338360E0,1.219202995E1
1.025801739E1,5.239982605E0,2.859722137E0,1.277139187E1
1.026798385E1,4.600799561E0,3.046362400E0,1.116251755E1
1.027796119E1,4.899902344E0,3.228515863E0,1.090648556E1
1.028792875E1,4.366003990E0,3.034398317E0,9.321539879E0
1.029789448E1,3.777070522E0,2.936292410E0,8.775676727E0
1.030786182E1,3.070888758E0,3.211766243E0,9.462716103E0
1.031783411E1,1.991127491E0,3.760021687E0,8.490632057E0
1.032780198E1,8.946165442E-1,3.771985769E0,8.940781593E0
1.033775974E1,5.114658475E-1,3.417548895E0,9.719047546E0
1.034772656E1,-2.003988996E-2,3.446262836E0,9.199505806E0
1.035769296E1,-6.329016089E-1,3.498904943E0,9.029315948E0
1.036765974E1,-9.466604590E-1,3.415156126E0,9.400503159E0
1.037762630E1,-7.217351198E-1,3.539582968E0,9.228219986E0
1.038759307E1,-8.078767657E-1,3.618845224E0,9.077172279E0
1.039756770E1,-1.234098315E0,3.762414455E0,9.149256706E0
1.040753520E1,-1.399203062E0,4.020839214E0,8.593523026E0
1.041749708E1,-1.173978567E0,4.241278172E0,9.093922615E0
1.042746401E1,-7.815557122E-1,4.267599106E0,8.476275444E0
1.043743640E1,-6.544370055E-1,4.325026989E0,8.648857117E0
1.044740385E1,-3.768695593E-1,4.231706619E0,9.154042244E0
1.045737187E1,-6.550352275E-2,4.401597023E0,8.782855988E0
1.046733937E1,-1.830509305E-1,4.205385685E0,8.924032211E0
1.047731088E1,-1.806581169E-1,3.870091438E0,9.323932648E0
1.048727880E1,1.283151209E-1,4.032803535E0,8.749356270E0
1.049723869E1,3.149552941E-1,4.085445404E0,8.766105652E0
1.050720583E1,-2.763710022E-1,3.817449331E0,9.541679382E0
1.051718494E1,-3.146561682E-1,4.075874329E0,8.955139160E0
1.052715323E1,-4.797609448E-1,4.102195263E0,8.768498421E0
1.053710927E1,-1.241276741E0,3.594617844E0,9.501001358E0
1.054707630E1,-1.511665702E0,3.937090635E0,9.024530411E0
1.055704093E1,-8.605188727E-1,4.447061062E0,7.715058327E0
1.056700776E1,-1.054337502E0,4.044767380E0,9.800403595E0
1.057697885E1,-6.786643267E-1,4.346562386E0,9.285647392E0
1.058694609E1,-6.616154313E-1,4.717749119E0,8.672785759E0
1.059691510E1,-4.007977843E-1,4.406383038E0,9.295218468E0
1.060688250E1,-2.907279432E-1,4.758427143E0,8.335098267E0
1.061684906E1,1.498505175E-1,4.966602325E0,7.913662910E0
1.062681635E1,1.259222925E-1,4.741677284E0,8.971888542E0
1.063679416E1,-5.874379873E-1,4.724927425E0,8.308777809E0
1.064676250E1,-2.174776793E0,4.621737003E0,8.461917877E0
1.065669948E1,-1.154836059E0,5.004887581E0,8.234600067E0
1.066666463E1,-1.820638895E0,5.057529926E0,7.884948730E0
1.067665448E1,-2.476571321E0,4.820640087E0,8.785248756E0
1.068662213E1,-2.409572363E0,5.119743347E0,8.528917313E0
1.069659369E1,-2.591426849E0,5.187041283E0,7.789236069E0
1.070656172E1,-2.787937403E0,4.985744953E0,8.459525108E0
1.071652119E1,-2.433500528E0,5.194219589E0,7.681559086E0
1.072648838E1,-1.801496387E0,5.419145107E0,7.963912010E0
1.073645822E1,-1.875673890E0,5.289932728E0,8.689535141E0
1.074642562E1,-1.906780601E0,5.502893925E0,7.959126472E0
1.075637312E1,-1.399203062E0,5.689534187E0,7.743772507E0
1.076633849E1,-1.157228827E0,5.402395248E0,8.110173225E0
1.077632396E1,-9.993025661E-1,5.431109428E0,8.392526627E0
1.078629135E1,-6.640082598E-1,5.490929604E0,7.839485168E0
1.079625708E1,-6.185446382E-1,5.364109993E0,8.493024826E0
1.080622432E1,-1.830509305E-1,5.390431404E0,8.169993401E0
1.081619453E1,-4.486542344E-1,5.330610752E0,8.449954033E0
1.082616203E1,-6.209374666E-1,4.966602325E0,8.363812447E0
1.083613948E1,-3.672982752E-1,5.110171795E0,8.514560699E0
1.084610802E1,-3.864408433E-1,5.071886539E0,8.287241936E0
1.085607307E1,-6.738786697E-1,4.901996136E0,8.648857117E0
1.086604125E1,-8.006982803E-1,4.928317547E0,8.244171143E0
1.087599994E1,-1.140479088E0,4.803890705E0,8.562417030E0
1.088596713E1,-1.123729348E0,4.652843475E0,8.641678810E0
1.089591270E1,-1.118943691E0,4.772783756E0,8.560024261E0
1.090587765E1,-1.360917926E0,4.600201607E0,8.509774208E0
1.091584375E1,-1.408774376E0,4.559523582E0,8.708678246E0
1.092580885E1,-1.382453322E0,4.636094093E0,8.481060982E0
1.093579838E1,-1.466202021E0,4.566701889E0,8.670392990E0
1.094576593E1,-1.612164259E0,4.559523582E0,8.581559181E0
1.095574432E1,-1.310668588E0,4.631308079E0,8.402097702E0
1.096571291E1,-1.135693431E0,4.674678326E0,8.646464348E0
1.097566531E1,-1.157228827E0,4.691427708E0,8.576773643E0
1.098563229E1,-1.267597795E0,4.775176525E0,8.595915794E0
1.099563234E1,-1.111765265E0,4.818247318E0,8.323134422E0
1.100560265E1,-9.586246014E-1,4.909174919E0,8.543273926E0
1.101556151E1,-7.815557122E-1,4.966602325E0,8.435597420E0
1.102553067E1,-6.930212379E-1,5.026422977E0,8.414061546E0
1.103546677E1,5.401797295E-1,5.177470207E0,9.831509590E0
1.104543260E1,-1.006481051E0,5.091029167E0,6.884150982E0
1.105542932E1,-9.131609201E-1,5.771189213E0,7.236194611E0
1.106539823E1,-9.182456881E-2,4.432703972E0,1.095194912E1
1.107535838E1,-8.174480200E-1,5.500501156E0,6.553941250E0
1.108532640E1,-2.715853751E-1,5.579464436E0,8.066802979E0
1.109528739E1,-5.539384484E-1,4.791926384E0,9.879366875E0
1.110525468E1,-4.414757788E-1,5.893223286E0,7.083054066E0
1.111522234E1,-9.945169091E-1,5.143671513E0,7.667201996E0
1.112518968E1,-9.131609201E-1,4.964209557E0,9.244969368E0
1.113514172E1,-7.719843984E-1,5.543571949E0,7.532904625E0
1.114510750E1,-9.131609201E-1,4.882853508E0,9.139386177E0
1.115508041E1,-8.054839373E-1,5.035994530E0,8.713463783E0
1.116504687E1,-7.049853802E-1,5.294718266E0,8.040482521E0
1.117500838E1,-6.882356405E-1,4.973781109E0,8.612666130E0
1.118497437E1,-7.313064337E-1,5.114957333E0,8.344670296E0
1.119495526E1,-6.041877270E-1,4.961816788E0,7.899305820E0
1.120492271E1,-4.749752879E-1,4.904388905E0,8.792427063E0
1.121487526E1,-3.505485058E-1,4.973781109E0,8.337491035E0
1.122484125E1,-3.744767308E-1,4.885246754E0,8.593523026E0
1.123480125E1,-3.170489967E-1,4.827818871E0,8.691927910E0
1.124476656E1,-4.175475538E-1,4.928317547E0,8.574380875E0
1.125475130E1,-3.672982752E-1,4.873282433E0,8.370990753E0
1.126471859E1,-2.931207716E-1,4.894817829E0,8.607880592E0
1.127469224E1,-2.644068897E-1,4.846961498E0,8.593523026E0
1.128466015E1,-2.476571500E-1,4.899603367E0,8.571988106E0
1.129461338E1,-3.194418252E-1,4.985744953E0,8.311170578E0
1.130457984E1,-3.002992272E-1,4.964209557E0,8.528917313E0
1.131456328E1,-3.194418252E-1,4.901996136E0,8.557631493E0
1.132453146E1,-4.199403822E-1,4.940281391E0,8.476275444E0
1.133449963E1,-4.414757788E-1,4.968995094E0,8.457132339E0
1.134446781E1,-4.701896608E-1,5.016851902E0,8.426025391E0
1.135441885E1,-5.324030519E-1,5.014459133E0,8.423632622E0
1.136438531E1,-5.419743061E-1,5.028815746E0,8.449954033E0
1.137436817E1,-4.965106845E-1,5.086243629E0,8.433204651E0
1.138433625E1,-5.108676553E-1,5.126921654E0,8.485846519E0
1.139432385E1,-6.448656917E-1,5.110171795E0,8.390133858E0
1.140429390E1,-5.994020700E-1,5.129314423E0,8.380561829E0
1.141425406E1,-5.300102234E-1,5.093421936E0,8.445168495E0
1.142422312E1,-4.390829504E-1,5.110171795E0,8.473882675E0
1.143418922E1,-4.654040039E-1,5.129314423E0,8.378169060E0
1.144415791E1,-4.199403822E-1,5.134099960E0,8.380561829E0
1.145408713E1,-3.840480447E-1,5.153242588E0,8.356634140E0
1.146405182E1,-3.601198196E-1,5.119743347E0,8.485846519E0
1.147404953E1,-3.481557071E-1,5.074279308E0,8.466703415E0
1.148401760E1,-3.601198196E-1,5.088636398E0,8.397312164E0
1.149397458E1,-4.725824594E-1,5.035994530E0,8.392526627E0
1.150394151E1,-4.534398913E-1,5.067101002E0,8.440382957E0
1.151392015E1,-5.347958803E-1,5.007280350E0,8.447561264E0
1.152388828E1,-5.467599630E-1,5.007280350E0,8.588737488E0
1.153384385E1,-5.898307562E-1,4.995316505E0,8.437990189E0
1.154381067E1,-5.419743061E-1,5.009673119E0,8.342276573E0
1.155376828E1,-5.419743061E-1,4.928317547E0,8.571988106E0
1.156373416E1,-5.491527915E-1,4.945066929E0,8.583951950E0
1.157373484E1,-5.467599630E-1,5.009673119E0,8.308777809E0
1.158370427E1,-4.989035130E-1,4.997709274E0,8.375776291E0
1.159366088E1,-4.965106845E-1,4.980959415E0,8.418847084E0
1.160362896E1,-4.701896608E-1,5.009673119E0,7.619345665E0
1.161364130E1,-3.672982752E-1,5.313860893E0,8.165207863E0
1.162361390E1,-3.672982752E-1,4.554738045E0,1.024337482E1
1.163359218E1,-5.036891699E-1,5.016851902E0,8.794819832E0
1.164356531E1,-3.577269912E-1,5.177470207E0,8.289634705E0
1.165351682E1,-5.156532526E-1,5.091029167E0,8.301599503E0
1.166348781E1,-4.342973232E-1,5.285147190E0,7.798807144E0
1.167337515E1,-6.185446382E-1,4.997709274E0,7.825128078E0
1.168333765E1,-5.994020700E-1,5.095814705E0,8.545666695E0
1.169331833E1,-6.352944374E-1,5.095814705E0,8.296813011E0
1.170328271E1,-6.616154313E-1,5.102993488E0,8.828319550E0
1.171918428E1,-3.672982752E-1,4.947459698E0,8.567202568E0
1.172916683E1,-4.295116663E-1,4.873282433E0,8.658429146E0
1.173913386E1,-4.725824594E-1,4.942674160E0,8.500203133E0
1.174913282E1,-4.582255483E-1,4.909174919E0,8.459525108E0
1.175906402E1,-4.869394004E-1,4.899603367E0,8.658429146E0
1.176903136E1,-5.539384484E-1,4.868496895E0,8.445168495E0
1.177899881E1,-5.659025311E-1,4.911567688E0,8.576773643E0
1.178893308E1,-5.826523304E-1,4.885246754E0,8.512166977E0
1.179889813E1,-6.161518097E-1,4.911567688E0,8.495417595E0
1.180885975E1,-5.706881881E-1,4.842175961E0,8.521739006E0
1.181882444E1,-5.682953596E-1,4.916353226E0,8.469096184E0
1.182882220E1,-5.347958803E-1,4.901996136E0,8.418847084E0
1.183879022E1,-5.347958803E-1,4.923531532E0,8.569595337E0
1.184873751E1,-4.342973232E-1,4.930710316E0,8.488239288E0
1.185870345E1,-4.007977843E-1,4.959424019E0,8.543273926E0
1.186865746E1,-3.840480447E-1,4.923531532E0,8.483453751E0
1.187862214E1,-4.677968323E-1,4.911567688E0,8.550452232E0
1.188862923E1,-5.204389095E-1,4.882853508E0,8.531310081E0
1.189859824E1,-5.276173949E-1,4.918745995E0,8.478668213E0
1.190856527E1,-4.534398913E-1,4.935495853E0,8.476275444E0
1.191853402E1,-3.625126183E-1,4.913960457E0,8.591130257E0
1.192849673E1,-3.218346536E-1,4.930710316E0,8.598309517E0
1.193846485E1,-3.601198196E-1,4.937888622E0,8.509774208E0
1.194841313E1,-4.606183469E-1,4.880460739E0,8.536095619E0
1.195837928E1,-4.869394004E-1,4.851747036E0,8.521739006E0
1.196838017E1,-4.749752879E-1,4.887639523E0,8.445168495E0
1.197834985E1,-4.223332107E-1,4.887639523E0,8.502595901E0
1.198831121E1,-4.797609448E-1,4.890032291E0,8.531310081E0
1.199828001E1,-5.324030519E-1,4.933103085E0,8.495417595E0
1.200824438E1,-5.682953596E-1,4.918745995E0,8.521739006E0
1.201821272E1,-6.714858413E-1,4.899603367E0,8.571988106E0
1.202818209E1,-7.887341380E-1,4.909174919E0,8.406883240E0
1.203815053E1,-7.624131441E-1,4.913960457E0,8.442775726E0
1.204810798E1,-6.690930128E-1,4.916353226E0,8.461917877E0
1.205807532E1,-6.786643267E-1,4.978566647E0,8.392526627E0
1.206802230E1,-6.858428121E-1,4.992923737E0,8.387741089E0
1.207798756E1,-7.193422914E-1,4.988137722E0,8.500203133E0
1.208795214E1,-8.006982803E-1,4.964209557E0,8.394919395E0
1.209791735E1,-6.978068948E-1,4.995316505E0,8.411668777E0
1.210789912E1,-8.437690735E-1,5.445466042E0,5.526822090E0
1.211786600E1,-7.049853802E-1,4.509274483E0,1.342762375E1
1.212783657E1,-1.974078715E-1,4.573880672E0,8.399704933E0
1.213780381E1,-8.557332158E-1,6.024828434E0,5.459524155E0
1.214776100E1,-2.907279432E-1,4.576273441E0,9.936794281E0
1.215772720E1,-7.265207767E-1,4.875675201E0,8.636893272E0
1.216769688E1,-6.690930128E-1,4.966602325E0,7.095018387E0
1.217766345E1,-3.337987661E-1,4.799104691E0,1.002532864E1
1.218765907E1,-5.826523304E-1,5.234897614E0,7.279265404E0
1.219762860E1,-5.132604837E-1,5.093421936E0,8.454739571E0
1.220759480E1,-3.744767308E-1,4.669892311E0,9.762118340E0
1.221756397E1,-5.563312769E-1,5.095814705E0,7.633702278E0
1.222752829E1,-4.893322289E-1,4.995316505E0,8.366205215E0
1.223749694E1,-2.045863420E-1,4.756033897E0,9.010173798E0
1.224745584E1,-4.749752879E-1,5.007280350E0,8.327919960E0
1.225742350E1,-2.859423161E-1,4.863711357E0,8.636893272E0
1.226738975E1,-4.677968323E-1,4.913960457E0,8.571988106E0
1.227735725E1,-5.443671346E-1,4.973781109E0,7.619345665E0
1.228732079E1,-4.127618968E-1,4.777569294E0,9.338289261E0
1.229728793E1,-2.476571500E-1,4.672285080E0,8.701499939E0
1.230726204E1,-3.385843933E-1,5.012066364E0,8.117351532E0
1.231722985E1,-8.464609832E-2,4.708177567E0,9.053244591E0
1.232717631E1,-3.385843933E-1,4.839782715E0,8.682356834E0
1.233714194E1,-5.682953596E-1,4.846961498E0,7.966304779E0
1.234712902E1,-7.552346587E-1,4.796711922E0,8.852247238E0
1.235709683E1,-5.682953596E-1,4.978566647E0,7.932805061E0
1.236703256E1,-4.875376076E-2,4.992923737E0,8.691927910E0
1.237699709E1,3.197409213E-1,4.885246754E0,9.216255188E0
1.238698345E1,1.091725305E-1,5.143671513E0,8.225028992E0
1.239695016E1,-2.093719840E-1,5.035994530E0,8.406883240E0
1.240692787E1,-7.456633449E-1,4.868496895E0,8.632107735E0
1.241689568E1,-1.042373419E0,5.126921654E0,7.851449490E0
1.242685954E1,-7.743772268E-1,5.256433010E0,8.287241936E0
1.243682699E1,-2.572284341E-1,5.395216942E0,8.567202568E0
1.244678032E1,4.695914313E-2,5.510072231E0,8.519346237E0
1.245674631E1,1.106680464E-2,5.426323414E0,8.694320679E0
1.246673027E1,-5.754738450E-1,5.385645390E0,8.167600632E0
1.247669808E1,-1.071087241E0,5.323431969E0,7.834699631E0
1.248664183E1,-1.255633712E0,5.199005604E0,8.332705498E0
1.249660720E1,-1.032802105E0,5.388038158E0,8.040482521E0
1.250660105E1,-7.313064337E-1,5.411966801E0,8.306385040E0
1.251656928E1,-7.193422914E-1,5.354538918E0,8.600702286E0
1.252656204E1,-7.480561733E-1,5.411966801E0,8.097909927E0
1.253653277E1,-1.016052365E0,5.220541000E0,8.339883804E0
1.254648954E1,-1.186241865E0,5.134099960E0,8.146065712E0
1.255645881E1,-1.217348576E0,5.246861935E0,8.071588516E0
1.256640985E1,-9.538389444E-1,5.239683151E0,8.370990753E0
1.257637730E1,-8.629116416E-1,5.311468124E0,8.323134422E0
1.258634501E1,-1.159621716E0,5.304289818E0,8.069195747E0
1.259631246E1,-6.041877270E-1,5.119743347E0,8.373383522E0
1.260625553E1,7.579265833E-1,4.923531532E0,8.950352669E0
1.261622053E1,8.009973764E-1,5.026422977E0,8.675178528E0
1.262623006E1,7.770691514E-1,5.246861935E0,7.750950813E0
1.263619954E1,3.888336709E-3,5.423930645E0,8.737391472E0
1.264613490E1,-5.970092416E-1,5.603392601E0,7.834699631E0
1.265610095E1,-8.294121623E-1,5.534000397E0,8.471489906E0
1.266607871E1,-3.505485058E-1,5.179862976E0,8.543273926E0
1.267604589E1,-4.875376076E-2,5.196612358E0,8.318348885E0
1.268602204E1,4.157529473E-1,5.266004562E0,8.280063629E0
1.269599017E1,-8.006982803E-1,5.234897614E0,8.292027473E0
1.270593563E1,-1.382453322E0,5.368896008E0,8.248956680E0
1.271590142E1,-1.578664780E0,5.498108387E0,8.399704933E0
1.272585933E1,-1.154836059E0,5.615356445E0,7.990232944E0
1.273582433E1,-9.993025661E-1,5.316253662E0,8.062017441E0
1.274579595E1,-1.238883972E0,5.201398373E0,8.502595901E0
1.275576162E1,-1.698305845E0,5.206183910E0,7.856235027E0
1.276575949E1,-1.717747569E0,5.246861935E0,8.454739571E0
1.277572839E1,-1.818246126E0,5.122136116E0,8.232207298E0
1.278566470E1,-1.758425593E0,5.313860893E0,8.076375008E0
1.279563027E1,-1.772782445E0,5.242076397E0,8.014161110E0
1.280560652E1,-2.028814554E0,5.201398373E0,8.452346802E0
1.281557319E1,-2.114956141E0,5.199005604E0,7.999804497E0
1.282556584E1,-1.928315997E0,5.364109993E0,8.069195747E0
1.283553517E1,-1.545165181E0,5.309075356E0,8.102695465E0
1.284550657E1,-1.315454245E0,5.388038158E0,8.191529274E0
1.285547605E1,-1.413560033E0,5.404788017E0,8.095517159E0
1.286545522E1,-1.176371455E0,5.517251015E0,8.198707581E0
1.287542568E1,-1.164407372E0,5.612963676E0,7.875377655E0
1.288543574E1,-8.748757839E-1,5.517251015E0,8.057231903E0
1.289541022E1,-7.719843984E-1,5.510072231E0,8.047660828E0
1.290534079E1,-3.194418252E-1,5.447858810E0,7.947162151E0
1.291531084E1,1.021436214E0,5.395216942E0,8.868997574E0
1.292521392E1,2.362015009E0,5.718546867E0,7.983054638E0
1.293517720E1,1.720439434E0,6.022435665E0,7.705487251E0
1.294516168E1,-4.157529399E-2,5.706583023E0,7.738986492E0
1.295512709E1,-1.957029819E0,5.807081223E0,9.759725571E0
1.296509600E1,-1.683948994E0,6.094220161E0,8.122137070E0
1.297506178E1,-5.682953633E-3,5.984150410E0,7.181159973E0
1.298502668E1,1.399502158E0,5.433502197E0,7.667201996E0
1.299499230E1,1.929213256E-1,5.239683151E0,8.603095055E0
1.300496563E1,-1.370489120E0,5.373681545E0,6.999006271E0
1.301493204E1,-1.913959026E0,5.632106304E0,8.366205215E0
1.302487892E1,-2.007279158E0,5.701797485E0,8.411668777E0
1.303484334E1,-1.490130305E0,5.917151451E0,7.621738434E0
1.304483173E1,-7.480561733E-1,5.699404240E0,9.240183830E0
1.305479855E1,-1.413560033E0,5.842973709E0,8.208278656E0
1.306474871E1,-1.454237938E0,5.886044502E0,6.786045074E0
1.307471381E1,-1.226919770E0,4.935495853E0,8.560024261E0
1.308468355E1,-1.109372377E0,4.631308079E0,8.840283394E0
1.309464912E1,-1.018445134E0,5.282754421E0,7.288836956E0
1.310462225E1,-1.322632670E0,5.675177097E0,7.832306862E0
1.311458860E1,-1.882852316E0,5.593821049E0,8.150851250E0
1.312458464E1,-2.169991016E0,5.648856163E0,7.808378696E0
1.313455397E1,-1.834995866E0,5.402395248E0,8.021339417E0
1.314451574E1,-1.628913999E0,5.438287735E0,8.282456398E0
1.315448433E1,-1.593021631E0,5.529214859E0,6.790830612E0
1.316445173E1,-1.619342685E0,5.593821049E0,7.214659214E0
1.317442016E1,-1.671984792E0,5.574678421E0,7.944769382E0
1.318439230E1,-1.952244163E0,5.742475033E0,7.930412292E0
1.319436110E1,-2.366501570E0,5.344967365E0,8.687142372E0
1.320431980E1,-2.148455620E0,5.199005604E0,8.071588516E0
1.321428756E1,-1.566700578E0,5.440680504E0,7.441977501E0
1.322425959E1,-1.370489120E0,5.723332882E0,7.034898758E0
1.323422777E1,-1.250848055E0,5.565107346E0,6.850651264E0
1.324415985E1,-6.714858413E-1,6.067899227E0,7.487441063E0
1.325412433E1,-3.242274821E-1,6.369693756E0,7.631309509E0
1.326411944E1,1.067797095E-1,6.264409542E0,9.019744873E0
1.327408709E1,2.910270393E-1,6.690331936E0,7.197909832E0
1.328405959E1,5.784648657E-1,6.508477688E0,4.882554531E0
1.329402772E1,1.200897813E0,5.823831081E0,7.575975418E0
1.330399397E1,1.450050473E0,5.512465000E0,7.537690639E0
1.331396188E1,1.155434251E0,5.716154099E0,7.470691204E0
1.332392918E1,1.473978758E0,6.187540054E0,8.938388824E0
1.333389699E1,1.045364380E0,7.360920429E0,8.406883240E0
1.334384918E1,2.838485837E-1,7.837391376E0,6.611369133E0
1.335381542E1,1.106680464E-2,7.502097130E0,8.579166412E0
1.336378345E1,1.307079345E-1,7.221837997E0,5.301597595E0
1.337374985E1,3.245265782E-1,6.656832695E0,5.258526802E0
1.338370240E1,5.473581553E-1,6.194718838E0,8.540881157E0
1.339366740E1,9.352945685E-1,8.124529839E0,5.555535793E0
1.340365751E1,1.624726534E0,8.725427628E0,6.326323986E0
1.341362501E1,2.022234201E0,7.576274872E0,7.441977501E0
1.342358642E1,1.706082582E0,6.707081795E0,1.045155048E1
1.343355329E1,2.153839588E0,6.769594193E0,8.658429146E0
1.344349964E1,2.072483540E0,7.473383427E0,4.801198483E0
1.345346449E1,2.108375788E0,6.300302029E0,4.272085667E0
1.346344709E1,2.053340912E0,6.075077534E0,5.670391560E0
1.347341365E1,1.457229018E0,5.833402634E0,7.138089180E0
1.348339037E1,1.552941918E0,5.991328716E0,1.533081436E1
1.349335803E1,6.669993401E-1,6.760023117E0,1.466531086E1
1.350330490E1,-2.141576260E-1,8.505288124E0,8.806783676E0
1.351327042E1,-4.319044948E-1,8.284849167E0,2.813959360E0
1.352325970E1,-1.310668588E0,6.692724705E0,5.160421371E0
1.353322756E1,-1.628913999E0,5.854938030E0,8.603095055E0
1.354319204E1,-1.286740422E0,7.909176350E0,8.569595337E0
1.355315954E1,-7.815557122E-1,6.518048763E0,1.254168034E1
1.356311074E1,-4.247260094E-1,5.091029167E0,9.060422897E0
1.357307662E1,1.977069676E-1,4.394418716E0,5.177170753E0
1.358306480E1,6.502495408E-1,5.237290382E0,6.194718838E0
1.359303293E1,-2.285145670E-1,6.530013084E0,1.133300662E0
1.360299142E1,-1.616949916E0,5.723332882E0,5.162814140E0
1.361295855E1,-2.244467735E0,5.373681545E0,8.890532494E0
1.362291042E1,-2.512463808E0,6.908378124E0,5.315954685E0
1.363287600E1,-1.415952802E0,6.678368092E0,7.760521889E0
1.364286053E1,-1.954637051E0,6.101398468E0,8.244171143E0
1.365282798E1,-2.064706802E0,5.428716183E0,6.597012043E0
1.366279761E1,-2.878864765E0,4.147958279E0,1.348265839E1
1.367276532E1,-3.728615999E0,5.522036552E0,8.042875290E0
1.368271907E1,-5.062315464E0,5.273182869E0,1.275942802E1
1.369268537E1,-5.682355404E0,3.331407309E0,1.661665726E1
1.370265428E1,-5.624927998E0,6.312266350E0,3.381357431E0
1.371262079E1,-5.380859852E0,5.764010429E0,6.398108482E0
1.372260350E1,-4.880460739E0,4.631308079E0,1.174666500E1
1.373257168E1,-4.001696587E0,5.819045544E0,4.016053677E0
1.374252006E1,-3.020041227E0,5.838188171E0,8.725427628E0
1.375248626E1,-3.364906788E0,6.685546398E0,7.001399040E0
1.376247048E1,-3.230609655E0,8.567501068E0,2.931506872E0
1.377243845E1,-3.302693367E0,7.164410114E0,6.457929134E0
1.378240636E1,-2.799901485E0,6.396014690E0,4.478167534E0
1.379237428E1,-1.901994944E0,4.470989227E0,4.217051029E0
1.380232365E1,-1.056730270E0,2.826222658E0,8.402097702E0
1.381228970E1,-1.904387712E0,4.856532574E0,6.673582554E0
1.382227365E1,-2.644068956E0,6.156433582E0,4.334299088E0
1.383224152E1,-2.641676188E0,5.251647472E0,1.043719292E1
1.384220871E1,-4.252943039E0,5.055137157E0,7.346264839E0
1.385217647E1,-4.640879631E0,4.640879631E0,3.051147938E0
1.386212365E1,-3.838984728E0,3.587439299E0,8.174779892E0
1.387208938E1,-3.515654564E0,5.062315464E0,5.998208046E0
1.388208183E1,-3.240180969E0,5.567500114E0,1.111466122E1
1.389205022E1,-2.778366089E0,5.088636398E0,1.258953762E1
1.390199980E1,-3.122932673E0,6.245266914E0,2.591426849E0
1.391196626E1,-3.410370588E0,3.678665638E0,7.832306862E0
1.392195293E1,-3.099004507E0,2.050349951E0,1.483280849E1
1.393192147E1,-2.383251429E0,5.004887581E0,4.918447018E0
1.394187897E1,-1.068694472E0,5.691926956E0,3.924827337E0
1.395184636E1,-1.612164259E0,3.326621771E0,1.108833981E1
1.396181339E1,-1.468594909E0,4.516452789E0,1.156959629E1
1.397178074E1,-1.495514214E-1,6.259624004E0,1.020269680E1
1.398174157E1,-3.314059377E-1,6.403193474E0,5.598606586E0
1.399170824E1,-6.089733839E-1,3.611367464E0,8.356634140E0
1.400167246E1,-4.157529399E-2,1.028315544E0,1.248903847E1
1.401163886E1,1.473978758E0,4.095016956E0,5.713462353E0
1.402161824E1,1.569691658E0,7.616952896E0,3.505485058E-1
1.403158595E1,8.368897438E-1,4.686642170E0,6.311966896E0
1.404152855E1,3.260220960E-2,1.639083475E-1,1.247707462E1
1.405149371E1,5.784648657E-1,3.795913935E0,1.234546947E1
1.406148579E1,2.728415966E0,8.309076309E0,2.754138947E0
1.407145365E1,1.392323732E0,6.618547440E0,7.398906708E0
1.408141011E1,6.837490797E-1,2.936292410E0,1.241246796E1
1.409137683E1,1.260718465E0,4.370490551E0,1.257757282E1
1.410133803E1,1.741974831E0,6.723831654E0,6.357430458E0
1.411130418E1,2.551347256E0,6.170790672E0,3.515654564E0
1.412127501E1,2.450549603E0,3.678665638E0,7.925626755E0
1.413124168E1,2.306980133E0,5.926722527E0,6.388537407E0
1.414121933E1,1.765903115E0,8.636893272E0,1.782054663E0
1.415118709E1,7.603194118E-1,7.265207767E0,4.164408684E0
1.416114162E1,7.914260626E-1,4.049553394E0,1.550339699E1
1.417110803E1,1.232004523E0,5.648856163E0,1.832603073E1
1.418108855E1,1.600798368E0,1.089212894E1,6.687939167E0
1.419105636E1,1.389930844E0,6.760023117E0,1.862064743E1
1.420102975E1,3.580260873E-1,4.564309120E0,2.303540421E1
1.421099808E1,-7.268198580E-2,4.322634220E0,4.236193180E0
1.422094230E1,-3.189931631E0,2.823829889E0,2.699103832E0
1.423090818E1,-4.039981842E0,3.060719252E0,3.714258909E0
1.424090017E1,-2.706282377E0,3.855734587E0,6.266503334E0
1.425086876E1,-2.787937403E0,4.744070053E0,1.312343597E1
1.426083032E1,-2.636890650E0,4.559523582E0,6.300003052E0
1.427079818E1,-1.875673890E0,5.565107346E0,2.849851847E0
1.428078990E1,6.131608039E-2,4.882853508E0,9.553643227E0
1.429076017E1,2.714059114E0,3.190230846E0,2.459163666E1
1.430070730E1,1.289432287E0,8.309076309E0,1.669592023E0
1.431067517E1,-1.274776220E0,7.669594765E0,5.866602898E0
1.432063673E1,-5.635097623E-1,-1.181755304E0,2.344248390E1
1.433060397E1,-1.214955688E0,7.432705402E0,1.109372377E0
1.434060454E1,-3.020041227E0,9.546764374E0,-1.535324764E1
1.435057516E1,-6.209374666E-1,2.582154751E0,1.621915054E1
1.436051418E1,3.171387196E0,2.084148407E0,9.939187050E0
1.437048157E1,2.333301067E0,4.753641129E0,2.780459881E0
1.438045204E1,3.415455103E0,1.059422255E0,1.800060654E1
1.439041975E1,3.822534084E0,4.401597023E0,6.390930176E0
1.440037527E1,2.584846735E0,5.689534187E0,-2.374278307E0
1.441034173E1,3.472882986E0,3.894019842E0,2.224068832E1
1.442031918E1,2.572882652E0,7.363313675E0,9.271290779E0
1.443028673E1,2.239981174E0,7.777570724E0,6.795616150E0
1.444025761E1,2.852842808E0,2.984148979E0,1.537149239E1
1.445022548E1,2.723630428E0,6.477370739E0,5.088636398E0
1.446019871E1,1.198505044E0,6.788736820E0,-6.885347366E-1
1.447016709E1,9.807581902E-1,5.991328716E0,1.341087341E1
1.448012209E1,1.282253861E0,6.539584160E0,3.347857952E0
1.449008912E1,1.452443361E0,6.699903488E0,4.829912663E0
1.450004527E1,7.076773047E-1,4.964209557E0,7.032505512E0
1.451001121E1,7.507480979E-1,4.684249401E0,9.508179665E0
1.451996522E1,2.871985435E0,2.929114103E0,2.608086967E1
1.452992996E1,4.229314029E-1,7.585845947E0,6.166004658E0
1.453990839E1,-2.519642353E0,5.102993488E0,-2.704487801E0
1.454987449E1,-5.682953633E-3,1.669891119E0,1.833799362E1
1.455984928E1,-1.892423630E0,5.986543179E0,-3.197708368E0
1.456981621E1,-3.912265003E-1,6.022435665E0,-9.616156220E-1
1.457977261E1,1.464407444E0,1.878066659E0,1.339651680E1
1.458973850E1,1.447657704E0,3.707379580E0,5.970092416E-1
1.459972115E1,1.761117458E0,2.275574446E0,1.010668468E1
1.460968876E1,-6.762714982E-1,3.563511133E0,1.321914864E1
1.461965168E1,-1.169192910E0,6.386443615E0,-3.935296059E0
1.462961876E1,1.260718465E0,2.921935558E0,1.341565895E1
1.463957501E1,5.449653864E-1,2.045564175E0,1.635554123E1
1.464954100E1,-1.741675735E0,6.360122681E0,6.192326069E0
1.465951985E1,-3.084647417E0,3.329014540E0,1.103569794E1
1.466948714E1,-2.967399120E0,3.886841297E0,9.022137642E0
1.467944642E1,-3.343371391E0,5.483751297E0,-8.300103545E-1
1.468941287E1,-2.344966173E0,4.341776848E0,9.259325981E0
1.469938839E1,-1.676770449E0,3.829413652E0,1.943450546E1
1.470935574E1,-1.526022673E0,5.416752338E0,1.253928757E1
1.471932511E1,-1.834995866E0,5.083850861E0,1.201735306E1
1.472929267E1,-2.802294493E0,3.451048374E0,1.342044449E1
1.473925339E1,-4.037589073E0,5.826223850E0,5.713462353E0
1.474922027E1,-2.447857618E0,2.615654230E0,7.106982231E0
1.475917777E1,-4.801198483E0,2.371287346E0,8.691927910E0
1.476914365E1,-3.707080364E0,6.908378124E0,-1.585244946E-2
1.477912199E1,-2.471785784E0,6.721438885E0,6.678368092E0
1.478908918E1,-3.525225878E0,5.105386257E0,8.090731621E0
1.479904839E1,-1.401595831E0,3.032005310E0,1.614736557E1
1.480901475E1,-2.213360965E-1,2.256431818E0,2.045683861E1
1.481897980E1,-1.811067581E0,6.477370739E0,7.719843864E0
1.482894600E1,-1.581057549E0,5.976971626E0,4.159623146E0
1.483892694E1,1.404287815E0,4.229313850E0,1.517767429E1
1.484889464E1,2.505883455E0,5.538786411E0,4.832305431E0
1.485886459E1,4.909473896E0,6.199504375E0,1.209153080E1
1.486883246E1,4.935794830E0,3.501297712E0,9.697511673E0
1.487878657E1,2.984747171E0,7.633702278E0,4.305585384E0
1.488875303E1,3.705285788E0,4.427918434E0,5.504987717E0
1.489872115E1,3.451347589E0,5.706583023E0,1.219202995E1
1.490868782E1,2.654238462E0,9.357730865E0,-4.313362122E0
1.491866730E1,2.809772015E0,5.459823132E0,6.355037689E0
1.492863522E1,2.742773056E0,2.929114103E0,1.840977859E1
1.493858798E1,2.632703066E0,6.941877365E0,2.926721096E0
1.494855438E1,1.562513232E0,6.336194515E0,3.764508247E0
1.495853985E1,9.855438471E-1,3.400799274E0,9.881759644E0
1.496850813E1,2.527418852E0,3.798306942E0,4.813162804E0
1.497847256E1,2.268694878E0,4.066302776E0,1.111226845E1
1.498844048E1,1.418943882E0,5.074279308E0,9.570393562E0
1.499839089E1,1.217647672E0,4.652843475E0,3.230609655E0
1.500835699E1,-7.839485407E-1,5.031208515E0,1.318804169E1
1.501834626E1,-4.319044948E-1,5.443073273E0,5.641677380E0
1.502831470E1,-1.090229869E0,5.464608669E0,-4.456632212E-2
1.503827709E1,-8.700901270E-1,3.053540707E0,6.860222340E0
1.504824490E1,-2.476571500E-1,5.347360611E0,6.268896103E0
1.505819803E1,-1.025623560E0,4.118945122E0,2.960220814E0
1.506816438E1,-1.439880967E0,6.619145870E-1,1.775145340E1
1.507815006E1,-1.837388635E0,4.954638481E0,7.401299477E0
1.508811834E1,-5.220241547E0,8.545966148E0,-2.670988321E0
1.509808522E1,-4.042374611E0,5.596213818E0,1.798355675E1
1.510805334E1,-1.289133191E0,4.382454872E0,8.289634705E0
1.511800110E1,-3.290729284E0,6.336194515E0,1.582642841E1
1.512796714E1,-3.317050457E0,6.879664421E0,1.544118404E1
1.513795647E1,-4.545166492E0,7.521239758E0,-1.100040436E1
1.514792485E1,-4.470989227E0,3.479762316E0,1.382483196E1
1.515789272E1,-2.713460922E0,1.945065737E0,5.399703503E0
1.516786105E1,-2.136491537E0,7.660023689E0,-5.072484970E0
1.517781548E1,-8.703892678E-2,1.495514214E-1,2.785245514E1
1.518778240E1,-1.303490162E0,3.597010612E0,2.290619278E1
1.519774392E1,-3.577867985E0,1.075813103E1,-1.635404587E1
1.520771027E1,-2.323430777E0,1.047458172E0,1.796202278E1
1.521766542E1,-2.795115948E0,9.323035479E-1,2.154138565E1
1.522763063E1,-3.314059377E-1,7.968996525E0,-1.144098282E1
1.523761563E1,-1.030409217E0,5.761617661E0,2.195564270E1
1.524758287E1,-4.606183469E-1,4.262813568E0,1.238614750E1
1.525756225E1,5.856433511E-1,7.047161579E0,5.347061157E0
1.526753068E1,2.000997961E-1,3.671487331E0,2.244168472E1
1.527748907E1,7.567301393E-2,6.910770893E0,2.248954296E0
1.528745647E1,1.593619823E0,6.795915604E0,-3.247957706E0
1.529741735E1,-2.237289101E-1,1.191027522E0,3.009363365E1
1.530738412E1,9.376873970E-1,3.053540707E0,4.944767952E0
1.531734110E1,-8.796614408E-1,9.311968803E0,2.969791889E0
1.532730683E1,5.641079545E-1,1.861316919E0,1.947039795E1
1.533728621E1,5.641079545E-1,4.447061062E0,5.880959988E0
1.534725334E1,1.622333765E0,5.550750256E0,1.870888233E0
1.535724089E1,1.052542806E0,3.831806421E0,2.011705780E1
1.536721006E1,1.014257669E0,6.029613972E0,4.985445976E0
1.537715662E1,1.880758643E0,6.530013084E0,8.131709099E0
1.538712350E1,-2.883351147E-1,5.400002480E0,4.236193180E0
1.539708662E1,7.088737190E-2,5.821438313E0,6.620940208E0
1.540705308E1,-1.902294010E-1,4.427918434E0,1.663340759E1
1.541704459E1,3.738785535E-2,6.664011002E0,1.432702541E0
1.542701360E1,3.870390654E-1,4.186243057E0,7.006184578E0
1.543698548E1,-5.922235847E-1,-9.828519225E-1,2.292772675E1
1.544695475E1,-5.730810165E-1,5.684748173E0,-1.040668488E1
1.545689694E1,-1.224527001E0,6.084649086E0,3.728615999E0
1.546686345E1,-2.002493382E0,-1.492822170E0,2.028455544E1
1.547683464E1,-1.365703583E0,4.092624187E0,8.158029556E0
1.548680162E1,-1.796710730E0,7.427919865E0,6.130112648E0
1.549675725E1,-1.336989641E0,8.102994919E0,2.621008110E1
1.550672308E1,-1.909173369E0,5.728118420E0,7.087839603E0
1.551671579E1,-1.389631748E0,3.647558928E0,1.508913994E1
1.552668433E1,-2.883650303E0,6.812664986E0,-7.339684486E0
1.553663871E1,-3.984946966E0,1.016680431E1,-1.586561012E1
1.554660579E1,-9.897312522E-1,-3.212065220E0,2.166611099E1
1.555658058E1,-3.647259951E0,9.634101987E-1,3.135524940E1
1.556654845E1,-1.695913076E0,9.630513191E0,-2.316850424E0
1.557652110E1,-2.261217386E-1,1.052243710E0,2.374906349E1
1.558648944E1,1.235294715E-1,4.571487427E0,1.256082344E1
1.559644449E1,-1.495514214E-1,8.828618050E0,-1.819980812E1
1.560641147E1,-5.587241054E-1,5.574678421E0,4.930410862E0
1.561636220E1,6.311069727E-1,8.938688278E0,6.789634377E-2
1.562632751E1,9.329017401E-1,1.076052380E1,-1.737398529E1
1.563629183E1,2.546561480E0,4.047160625E0,1.026490974E1
1.564625704E1,1.722832322E0,5.038387299E0,-3.190529823E0
1.565625709E1,2.074876308E0,5.040780067E0,8.088338852E0
1.566622584E1,1.275075316E0,-3.812962770E0,5.431318665E1
1.567617240E1,-1.303490162E0,5.333003521E0,2.617179680E1
1.568613892E1,1.106680464E-2,1.108624649E1,-1.281057453E1
1.569610631E1,2.144268274E0,-8.321040869E-1,1.867807388E1
1.570607287E1,1.962413669E0,-3.221337497E-1,1.139013481E1
1.571606438E1,1.631905079E0,1.011416245E1,-1.081137085E1
1.572603345E1,2.627917528E0,9.465408325E0,4.534398913E-1
1.573598511E1,1.457229018E0,9.180362701E0,5.204389095E-1
1.574595246E1,7.938188910E-1,3.937090635E0,1.027926731E1
1.575590412E1,7.004988194E-1,1.937887192E0,4.167190552E1
1.576586980E1,1.634297848E0,6.386443615E0,1.627657700E1
1.577582751E1,1.929213256E-1,8.064709663E0,1.059990501E1
1.578579240E1,2.158625126E0,2.333002090E-1,3.051147938E0
1.579578824E1,1.727617979E0,6.479763508E0,-2.180160522E0
1.580575626E1,-3.337987661E-1,1.025533867E1,-1.597807312E1
1.581570798E1,-3.984049559E-1,1.058106136E1,3.297608614E0
1.582567433E1,-7.289136052E-1,2.378465652E0,2.876232719E1
1.583566183E1,8.775677085E-1,7.375277519E0,2.322712898E1
1.584563032E1,3.573680639E0,7.490133286E0,1.516092396E1
1.585556579E1,1.706082582E0,1.253958702E1,-2.383849621E0
1.586553095E1,2.709273338E0,6.235695839E0,-1.004028416E1
1.587554496E1,-9.897312522E-1,5.685944557E-1,1.665015793E1
1.588551501E1,1.016650558E0,6.364908218E0,3.216252804E0
1.589545392E1,-1.823031783E0,7.494918823E0,-1.969592094E0
1.590542084E1,-2.021935135E-1,3.621237993E0,1.801735687E1
1.591544074E1,-1.169192910E0,3.697808266E0,3.034398317E0
1.592541298E1,-1.229312658E0,3.908376694E0,1.097827053E1
1.593538652E1,-3.048755169E0,1.856531262E0,1.952782631E1
1.594535892E1,-2.840579510E0,4.346562386E0,9.584750175E0
1.595527319E1,-3.122932673E0,1.011266708E0,6.924828529E0
1.596523970E1,-8.653044701E-1,2.108076811E0,1.007079220E1
1.597518475E1,-2.560320139E0,7.791628838E-1,9.486644745E0
1.598514907E1,-2.486142635E0,-3.699901998E-1,1.417209053E1
1.599513470E1,-4.583451748E0,8.973085135E-2,2.208007050E1
1.600510115E1,-3.618546009E0,1.753131485E1,-1.132612705E1
1.601507194E1,-7.983054519E-1,1.720589066E1,-1.127109241E1
1.602503881E1,-6.515655994E0,6.393621922E0,1.264935780E1
1.603500845E1,-2.742174864E0,6.271588326E0,6.747759819E0
1.604497563E1,-3.721437454E0,2.261217356E0,1.998036766E1
1.605492798E1,-6.032006741E0,1.521237016E0,2.187668037E1
1.606489360E1,-2.639283419E0,5.371288776E0,-8.448159218E0
1.607486918E1,-4.674378872E0,3.503690481E0,-1.670100403E1
1.608483584E1,-2.615355253E0,1.114457130E0,1.984158516E1
1.609479647E1,-4.116552353E0,6.654439926E0,1.667169189E1
1.610476246E1,-2.196312189E0,1.518754482E1,5.847460270E0
1.611473824E1,-5.577071190E0,3.111267567E0,2.003779602E1
1.612470522E1,-2.354537487E0,6.690930128E-1,6.450750828E0
1.613466631E1,-1.008873820E0,6.116653085E-1,7.621738434E0
1.614463272E1,-3.946661949E0,-6.082555294E0,3.243022537E1
1.615460225E1,-1.130907774E0,3.664308786E0,4.889732838E0
1.616456897E1,2.141875267E0,1.032951641E1,-6.698108673E0
1.617452740E1,1.871187329E0,2.201396942E0,1.787109566E1
1.618449329E1,2.060519457E0,6.996912479E0,-5.436492920E0
1.619447688E1,3.628715515E0,6.764808655E0,4.741377831E0
1.620444454E1,-1.708176255E0,1.461416483E0,2.411995125E1
1.621440938E1,2.225624084E0,1.005434132E1,-6.068497181E0
1.622437673E1,3.226422310E0,8.272885323E0,-1.578874111E1
1.623434688E1,5.309374332E0,-8.512466550E-1,1.034387302E1
1.624431454E1,2.747558594E0,-2.431706041E-1,2.536511612E1
1.625428037E1,-2.261217386E-1,4.640879631E0,1.942732620E1
1.626424777E1,1.241575837E0,8.428717613E0,4.526562500E1
1.627420277E1,1.818545222E0,4.878067970E0,1.193121147E1
1.628416897E1,5.730810165E0,3.510869026E0,5.132604837E-1
1.629414865E1,7.878368378E0,4.200600147E0,-5.335695267E0
1.630411615E1,5.831308842E0,1.305912876E1,-1.829312897E1
1.631408355E1,4.935794830E0,1.609741592E1,-1.791506386E1
1.632405105E1,4.986044407E0,2.795115948E0,6.568298340E-1
1.633400647E1,6.188138485E0,-3.422633648E0,2.416541481E1
1.634397277E1,2.690130949E0,6.297909260E0,-1.557727575E0
1.635395063E1,4.684548378E0,9.872487068E0,-1.495514154E0
1.636391803E1,2.153839588E0,1.700997829E0,2.894687271E1
1.637387548E1,-4.917250574E-1,2.728116989E0,2.539622307E1
1.638384188E1,-9.370891452E-1,5.095814705E0,4.871099091E1
1.639382230E1,8.201399446E-1,-6.104090691E0,2.157727814E1
1.640379011E1,3.269194067E-1,5.083850861E0,3.491726398E0
1.641373100E1,1.880758643E0,5.206183910E0,-1.069651508E1
1.642369610E1,1.450648755E-1,7.380063057E0,-9.903294444E-1
1.643368652E1,1.337288737E0,1.236221886E1,-1.494138241E1
1.644365418E1,1.277468204E0,9.613762856E0,-1.210170078E1
1.645362173E1,2.496312141E0,9.777671695E-1,2.578386116E1
1.646358938E1,-6.113362789E0,4.815854549E0,2.540818787E1
1.647355282E1,-9.146863937E0,9.927521706E0,-5.922235966E0
1.648352001E1,-6.506084919E0,3.338585854E0,1.821117401E1
1.649349345E1,-6.776473522E0,-5.848058701E0,1.361665630E1
1.650346126E1,-9.225827217E0,9.079864502E0,-1.792702675E1
1.651342183E1,-2.603390932E0,1.997707844E0,-7.114758968E0
1.652338886E1,7.100701332E-1,-6.454638839E-1,5.422704315E1
1.653336100E1,6.406782866E-1,3.685844183E0,2.928665352E1
1.654332860E1,-1.511665702E0,7.844570160E0,-9.664610863E0
1.655329704E1,-1.286142133E-2,4.820640087E0,2.361416817E0
1.656326470E1,2.063809521E-2,3.171088219E0,-1.999083710E1
1.657322860E1,6.095715761E-1,4.032803535E0,-1.182174015E1
1.658319589E1,-2.790330410E0,3.642773390E0,2.628425980E1
1.659317240E1,-1.348953694E-1,9.448657990E0,-1.270588875E0
1.660314058E1,2.879163742E0,1.194586754E1,1.557278919E1
1.661309850E1,-7.507480681E-2,2.641975403E0,3.273441315E1
1.662306563E1,-1.506880045E0,5.638088584E-1,7.379764080E0
1.663303319E1,-1.964208245E0,-5.050650597E0,2.752942467E1
1.664300037E1,2.383849621E-1,-4.631607533E0,3.989313889E1
1.665296808E1,1.351645708E0,5.507679462E0,-9.123533249E0
1.666293532E1,3.340978622E-1,4.509274483E0,-1.854736686E0
1.667290142E1,2.659024239E0,9.370891452E-1,7.083054066E0
1.668286850E1,6.370890141E-2,1.430638790E1,-1.870499420E1
1.669283761E1,5.282155871E-1,1.377009583E1,-1.014347458E1
1.670280490E1,-4.856532574E0,1.873101616E1,-5.517848969E0
1.671276928E1,4.253242314E-1,1.112692451E1,-1.147687435E1
1.672273626E1,5.072484970E0,-3.771686554E-1,6.278646851E1
1.673272496E1,1.474576890E-1,-2.967698336E0,5.151208878E1
1.674269412E1,-2.833401203E0,6.870092869E0,-2.170738792E1
1.675265746E1,-1.657627940E0,2.519642353E0,8.023732185E0
1.676262605E1,-6.398407936E0,-1.847259045E0,4.975874901E0
1.677259412E1,5.892325938E-2,1.066600680E0,2.892922640E0
1.678256261E1,2.254338026E0,-2.998805046E0,3.857379532E1
1.679253350E1,2.809772015E0,7.734200954E0,2.451506615E1
1.680250225E1,2.630310297E0,7.128517628E0,-1.600678635E1
1.681246595E1,2.568096876E0,2.103291035E0,2.162513542E1
1.682243418E1,-5.324030519E-1,7.145566344E-1,1.606122398E1
1.683239475E1,-4.394418716E0,9.771689415E0,-1.085204887E1
1.684236220E1,-6.304788589E0,9.292825699E0,-7.461718082E0
1.685232392E1,-8.921639442E0,2.065574265E1,-1.701476288E1
1.686229079E1,-5.402395248E0,9.752547264E0,-1.798445511E1
1.687225782E1,1.864008784E0,-7.021139622E0,4.904119873E1
1.688222470E1,4.803591371E-1,-4.899902344E0,1.927897263E1
1.689216839E1,6.813562512E-1,6.230910301E0,-2.404397964E1
1.690213287E1,-1.537986755E0,-1.327717423E0,3.980161428E0
1.691211095E1,-5.837889194E0,-4.054637909E0,2.261157608E1
1.692207683E1,-2.459821701E0,5.919544220E0,3.175275612E1
1.693204845E1,1.076471090E0,1.147418308E1,4.771976471E1
1.694201490E1,-3.218346536E-1,1.632951927E1,7.540083408E0
1.695198438E1,-7.662416458E0,1.771107483E1,-2.839921570E1
1.696195115E1,-5.069493771E0,7.169494629E-1,-2.157099724E1
1.697191553E1,-1.741675735E0,-2.519941330E0,-3.959224224E0
1.698188199E1,-4.236193180E0,-5.519942760E0,3.055933714E0
1.699185142E1,-4.880460739E0,-8.210970879E0,3.793700790E1
1.700181818E1,-9.125328064E0,-2.283051968E0,4.010849380E1
1.701178418E1,-6.781259537E0,6.894021034E0,5.342275620E0
1.702175089E1,-8.196314812E0,7.626523972E0,6.879364848E-1
1.703171803E1,-1.187139130E1,9.015258789E0,-2.800200701E0
1.704168475E1,-1.067677498E1,9.110971451E0,-9.966106415E0
1.705165074E1,-1.166321564E1,6.630511761E0,1.641057587E1
1.706161740E1,-1.430638790E1,1.842174292E0,1.298943806E1
1.707158720E1,-1.175653553E1,5.038387299E0,5.150849819E0
1.708155412E1,-1.016201878E1,-1.498505175E-1,2.326302147E1
1.709152746E1,-8.725427628E0,2.574976206E0,8.512166977E0
1.710149506E1,-3.443870068E0,5.716154099E0,-8.635098934E-1
1.711145392E1,-6.731009960E0,2.237289190E0,8.835497856E0
1.712142063E1,-4.547559261E0,2.249253273E0,4.487739086E0
1.713139027E1,-8.124529839E0,1.152742267E0,2.046640968E1
1.714135725E1,-7.937591076E0,-1.574178219E0,3.060120964E1
1.715132459E1,-4.252943039E0,-2.309372902E0,1.326221943E1
1.716129157E1,5.266303539E0,-9.049057007E0,2.380888367E1
1.717125569E1,6.867999077E0,-1.076770201E-2,1.567089462E1
1.718122240E1,4.401896477E0,-9.002995491E-2,-5.405087471E0
1.719118777E1,3.896711588E0,4.298706055E0,-1.902832413E1
1.720115433E1,9.765109062E0,1.634866142E1,-1.927956963E1
1.721112621E1,3.019712257E1,2.676342201E1,5.071886539E0
1.722109329E1,1.762283897E1,2.219043922E1,3.833451462E1
1.723106074E1,4.440181732E0,8.639286041E0,6.169953156E1
1.724102787E1,1.179362416E0,-7.523931503E0,4.534937286E1
1.725099464E1,-1.088734341E1,-1.812533188E1,1.887667847E1
1.726096168E1,-6.103791237E0,-2.236062813E1,-1.124327540E0
1.727093506E1,7.102495670E0,-6.192625046E0,-2.106102753E1
1.728090277E1,-1.169192910E0,7.121638656E-1,-1.499881077E1
1.729089438E1,9.614062309E0,5.716154099E0,4.195934296E1
1.730086449E1,8.637192726E0,1.364088345E1,3.297848129E1
1.731080240E1,5.105984211E0,1.969562149E1,1.827817345E1
1.732076923E1,1.335135174E1,5.040780067E0,4.600291443E1
1.733074053E1,9.204590797E0,-4.279862404E0,3.027219772E0
1.734070782E1,-1.968993902E0,-1.626281929E1,-2.412802696E1
1.735067355E1,-6.834499836E-1,-1.388525105E1,-2.705355263E1
1.736064068E1,2.615953445E0,2.639582396E0,-2.613171768E1
1.737060360E1,1.035793066E0,1.397348595E1,-2.688844681E1
1.738057032E1,-9.370891452E-1,2.451536560E1,-2.490599442E1
1.739055527E1,-1.965255165E1,1.811067581E1,5.251049423E1
1.740052376E1,8.970093727E-1,-7.181458950E0,7.853303528E1
1.741046892E1,-2.232503414E0,-4.660321236E0,2.984926605E1
1.742043511E1,-5.447858810E0,-1.481187153E1,-4.974349213E1
1.743041147E1,-1.525424421E-2,-1.543430424E1,-9.896714211E0
1.744037865E1,-2.838186741E0,-3.499203920E0,1.633161354E1
1.745037183E1,6.319743633E0,1.329601765E1,-1.725165367E1
1.746034162E1,-2.476571500E-1,2.879133987E1,-1.299242878E1
1.747027694E1,-1.930708766E0,2.277697945E1,-1.557338715E1
1.748024324E1,-6.010471344E0,9.733404160E0,5.121508026E1
1.749020397E1,-1.106949711E1,-1.002353382E1,7.497521210E1
1.750016970E1,-7.918448448E0,-2.943770170E0,2.295404816E1
1.751014855E1,-2.823829889E0,1.945065737E0,-2.314158630E1
1.752011558E1,7.315756321E0,-1.636690736E0,-1.795574188E1
1.753008235E1,-3.735794306E0,1.052841949E1,-3.367359543E1
1.754004933E1,7.088737190E-2,1.337019539E1,-3.574219131E1
1.755001511E1,-2.533999205E0,4.906782150E0,2.033719826E1
1.755998199E1,-6.137589812E-1,1.837388635E0,7.853303528E1
1.756995136E1,-1.179242802E1,-1.638006783E1,5.764847946E1
1.757991850E1,-4.097409725E0,-1.944467545E1,2.349512482E1
1.758988287E1,2.922234535E0,-1.838405609E1,-1.112363458E0
1.759984970E1,4.380361080E0,-8.129614830E0,-2.329711914E1
1.760981277E1,-3.747758389E0,1.407189083E1,-3.745963812E0
1.761977918E1,-1.044766188E0,2.505644226E1,4.875405884E1
1.762975126E1,-6.071787328E-2,1.611655807E1,4.828237534E1
1.763971824E1,4.131507397E0,7.437490940E0,5.210670471E0
1.764969006E1,4.667798996E0,-2.982055187E0,-4.255934238E0
1.765965751E1,7.310970306E0,3.314059377E-1,-2.860499763E1
1.766962131E1,3.465704441E0,1.503410435E1,-7.348418427E1
1.767958834E1,-3.324228764E0,1.733271027E1,1.476820183E1
1.768955292E1,-4.030410767E0,-1.709582138E1,7.853303528E1
1.769951975E1,-5.117350101E0,-4.852046013E0,3.856901169E1
1.770949100E1,1.192702484E1,-6.381957054E0,-5.094768143E1
1.771945824E1,6.396314144E0,-1.231466198E1,3.302394390E0
1.772942402E1,8.285148442E-2,-1.049761200E1,1.581057549E0
1.773939115E1,4.220041752E0,1.031755257E1,-2.800410080E1
1.774936157E1,1.420858097E1,2.008595085E1,1.507478237E1
1.775932897E1,1.555424404E1,2.000698853E1,5.259663391E1
1.776929444E1,8.694919586E0,1.355713463E1,-7.902296543E0
1.777926168E1,7.387540817E0,6.197111607E0,9.977472305E0
1.778921626E1,-1.001695395E0,-5.496014595E0,2.170200348E1
1.779918220E1,-4.004089355E0,-1.835294962E0,-5.752345562E0
1.780915975E1,-7.571488857E0,9.681958556E-1,1.184746265E1
1.781912688E1,7.674978375E-1,7.425527096E0,4.439643097E1
1.782910162E1,1.765903115E0,6.862914562E0,1.286142133E-2
1.783906949E1,3.597608805E0,9.681958556E-1,-7.821539044E-1
1.784903433E1,5.144269466E0,2.502892494E0,-1.655265045E1
1.785900183E1,7.737192154E0,2.031207323E0,-4.294398880E1
1.786896839E1,-7.499704361E0,4.346562386E0,4.923531723E1
1.787893579E1,-8.217850685E0,-3.547060490E0,6.439295197E1
1.788889938E1,-5.026422977E0,1.208225918E1,-1.303310680E1
1.789886642E1,-1.870888233E0,-1.102792144E0,6.070291996E0
1.790884454E1,2.747558594E0,-1.026999474E1,3.746292877E1
1.791881272E1,9.923035622E0,4.039981842E0,-2.485095787E1
1.792878142E1,6.896713257E0,1.377727413E1,-2.938087082E1
1.793874959E1,3.044567823E0,9.082257271E0,2.904258537E1
1.794872834E1,-7.746763527E-2,2.993720293E0,3.277748108E1
1.795869756E1,-1.801496387E0,6.819843769E0,5.443671346E-1
1.796864527E1,2.785843849E0,-2.800200701E0,4.346263123E1
1.797861230E1,6.405885220E0,-8.656334877E0,3.459453201E1
1.798857595E1,1.367707539E1,-2.924627542E0,-1.626760483E1
1.799854267E1,1.526919937E1,8.916255236E-1,-1.402672672E1
1.800852121E1,1.009292603E1,3.762414455E0,-7.258328438E0
1.801848907E1,4.169792652E0,9.130113602E0,-1.503709602E1
1.802845339E1,3.420240879E0,8.445467949E0,8.622237206E0
1.803842089E1,4.042973042E0,3.850949049E0,4.355146408E1
1.804839225E1,6.025127411E0,3.539582968E0,3.511646652E1
1.805836011E1,6.520740986E0,1.866102576E0,4.384548187E0
1.806831371E1,3.980460405E0,-6.973283291E0,1.034387302E1
1.807828011E1,5.149055004E0,-3.973282099E0,1.396810263E-1
1.808824194E1,1.607976794E0,4.887639523E0,-1.776880264E1
1.809820787E1,-3.721437454E0,8.612964630E0,1.640878081E0
1.810818313E1,-2.850150824E0,5.263611794E0,2.827628517E1
1.811815001E1,-2.531606436E0,6.515655994E0,6.754938126E0
1.812812720E1,-3.768695593E-1,7.976175308E0,6.113662124E-1
1.813809511E1,-1.715354681E0,3.123231649E0,1.044676495E1
1.814805412E1,-1.389631748E0,2.047957182E0,-4.794618607E0
1.815802110E1,-3.233002424E0,2.170290232E0,5.986244202E0
1.816798767E1,-5.229813099E0,7.128517628E0,1.303490162E1
1.817795459E1,-3.843770504E0,7.293921471E0,9.417252541E0
1.818791230E1,-5.294419289E0,-1.098006487E0,1.603251076E1
1.819787834E1,-5.840281963E0,-4.107280254E0,6.963113785E0
1.820786454E1,-6.077470303E0,-2.237588167E0,-1.259970665E1
1.821783261E1,-5.581857204E0,-2.194517374E0,-5.611168861E0
1.822776980E1,-7.394121170E0,-6.933203340E-1,8.248956680E0
1.823773470E1,-9.113364220E0,4.181457520E0,3.438635635E1
1.824773371E1,-6.130112648E0,2.249253273E0,4.008935165E1
1.825770204E1,-1.181157112E0,1.516451359E0,2.065095711E1
1.826764194E1,-3.601198196E-1,1.097707391E0,5.213063240E0
1.827760735E1,2.158625126E0,-1.054636598E0,9.699904442E0
1.828760454E1,1.991127491E0,2.452643216E-1,1.356132269E0
1.829757318E1,1.835294962E0,8.790034294E0,4.973481655E0
1.830753850E1,1.818545222E0,7.676773071E0,1.126331520E1
1.831750678E1,1.447657704E0,1.132792187E1,2.287239313E0
1.832745454E1,1.129113197E0,8.785248756E0,7.379764080E0
1.833742079E1,3.460619748E-1,6.453442574E0,2.025823402E1
1.834738944E1,4.054936886E0,7.001698017E0,1.212024498E1
1.835735589E1,4.624728203E0,7.114161015E0,1.286979675E1
1.836734423E1,6.891927242E0,4.451846600E0,1.239811134E1
1.837731287E1,7.366005421E0,3.386442184E0,8.026124954E0
1.838728334E1,7.660621643E0,2.249253273E0,9.381360054E0
1.839725214E1,6.582954407E0,3.623630762E0,8.840283394E0
1.840722444E1,5.127519608E0,5.179862976E0,2.732603550E0
1.841719360E1,2.575275421E0,7.181159973E0,-5.094020367E0
1.842713782E1,2.565704107E0,6.199504375E0,-7.703692436E0
1.843710449E1,4.768297195E0,6.307480335E0,1.779661775E-1
1.844707506E1,2.440978289E0,6.762415886E0,-1.395015597E0
1.845704204E1,-1.480558991E0,3.628416538E0,1.755045700E1
1.846698261E1,7.316055298E-1,-4.345964193E-1,4.339802551E1
1.847694694E1,1.928615093E0,2.792723179E0,1.243639660E1
1.848694933E1,2.350050926E0,-6.837490797E-1,9.924830437E0
1.849691751E1,1.522433460E-1,-6.762415886E0,2.368894386E1
1.850686261E1,1.251147151E0,4.606183469E-1,-3.293421268E0
1.851682845E1,2.678166628E0,2.366501570E0,2.545963287E0
1.852679220E1,1.337288737E0,2.665903568E0,2.191975021E1
1.853675777E1,-3.888336718E-1,8.732605934E0,-6.803392887E0
1.854675032E1,-6.954140663E-1,5.423930645E0,-4.612763882E0
1.855671865E1,-6.305087805E-1,-2.424228430E0,1.267567921E1
1.856665282E1,2.120639086E-1,7.504490018E-1,-1.713261008E0
1.857661766E1,2.934198678E-1,1.619641781E0,9.991828918E0
1.858660652E1,-1.667199135E0,6.978068948E-1,3.060360336E1
1.859657381E1,-2.653640270E0,1.617249012E0,1.693490410E1
1.860655595E1,-2.768795013E0,-9.242277592E-2,1.610429382E1
1.861652475E1,-2.153241158E0,1.607677698E0,1.752413559E1
1.862648418E1,-3.546761274E0,8.691927910E0,-3.695714474E0
1.863645199E1,-4.078267097E0,7.748558044E0,3.309572935E0
1.864643183E1,-3.637688637E0,3.362514019E0,1.473231030E1
1.865640089E1,-2.359323025E0,6.901199818E0,2.845066071E0
1.866636662E1,-1.753639936E0,7.178767204E0,-3.521038532E0
1.867633532E1,-4.159623146E0,4.949852943E0,5.132604837E-1
1.868626110E1,-3.396013498E0,1.794317842E0,2.467777824E1
1.869622542E1,-2.483749866E0,2.356930375E-1,3.497289658E1
1.870623636E1,-5.284847736E0,5.752046585E0,5.289633751E0
1.871620543E1,-1.758724600E-1,-5.982056726E-3,1.989183426E1
1.872613959E1,-3.505485058E-1,-2.177767754E0,2.593251419E1
1.873610516E1,-1.348953694E-1,7.284350395E0,-1.326311684E1
1.874609412E1,-8.485547304E-1,8.016853333E0,-8.306982994E0
1.875606204E1,-6.209374666E-1,5.321039200E0,1.669083595E1
1.876601266E1,-5.802595019E-1,7.363313675E0,1.166800141E0
1.877597881E1,-1.145264745E0,1.055713367E1,-2.850749016E0
1.878595459E1,-1.461416483E0,3.355335474E0,7.300800800E0
1.879592173E1,-8.748757839E-1,1.626820326E0,5.983851433E0
1.880589214E1,8.524430543E-2,3.412763357E0,-1.792523265E0
1.881585954E1,5.784648657E-1,4.566701889E0,3.101397276E0
1.882582558E1,4.899304509E-1,3.752843142E0,3.752544165E0
1.883579287E1,8.524430543E-2,3.398406267E0,6.738188744E0
1.884578548E1,4.157529473E-1,1.121635556E0,1.261107254E1
1.885575532E1,1.473978758E0,6.140581369E-1,2.800828743E1
1.886569990E1,5.653043464E-2,1.076770201E-2,2.833610535E1
1.887566720E1,6.281159353E-3,-4.322035909E-1,2.947598648E1
1.888564777E1,5.330012441E-1,-3.738785267E0,2.656212616E1
1.889561636E1,-3.297907829E0,-1.570289880E-1,4.901697159E0
1.890557600E1,-5.677569866E0,3.024827003E0,-1.372762394E1
1.891554371E1,-5.050351143E0,1.329811215E0,3.672982752E-1
1.892551537E1,-4.966602325E0,2.167897224E0,1.311865044E1
1.893548345E1,-4.236193180E0,8.002495766E0,8.797212601E0
1.894543470E1,-4.411168575E0,9.553942680E0,9.311968803E0
1.895540105E1,-3.889234066E0,6.087041855E0,6.091827393E0
1.896542928E1,-4.451846600E0,1.662712693E0,1.039980531E0
1.897540188E1,-4.839782715E0,1.851745605E0,2.632104874E0
1.898535464E1,-2.941078186E0,4.715356350E0,-2.278266191E0
1.899532527E1,-5.108676553E-1,4.461417675E0,2.596212626E0
1.900524860E1,-2.835494876E-1,4.008875370E0,9.577571869E0
1.901521444E1,-5.539384484E-1,4.325026989E0,5.251348495E0
1.902517714E1,-4.965106845E-1,2.634796858E0,8.021339417E0
1.903514261E1,-3.918246925E-2,1.691426516E0,1.156959629E1
1.904509751E1,8.847461939E-1,3.005684376E0,1.392562962E1
1.905506194E1,2.572882652E0,3.477369547E0,2.552782822E1
1.906503449E1,5.210371017E-1,2.067398787E0,1.474666691E1
1.907499975E1,2.687737942E0,-8.045866340E-2,8.380561829E0
1.908498949E1,3.367598772E0,-2.261516571E0,1.977219200E1
1.909495720E1,1.928615093E0,3.803092480E0,9.362217903E0
1.910491115E1,1.255932808E0,9.328718185E0,-1.651047587E0
1.911487746E1,7.818548083E-1,8.328219414E0,1.052094173E1
1.912484980E1,-3.385843933E-1,6.427121639E0,6.314359665E0
1.913481668E1,-1.894816399E0,4.674678326E0,3.448655605E0
1.914478740E1,-2.172383785E0,2.105684042E0,1.068126106E1
1.915475470E1,-2.203490496E0,2.665903568E0,7.650452137E0
1.916472240E1,-9.969097376E-1,3.338585854E0,9.407681465E0
1.917468970E1,1.761715710E-1,4.258028030E0,1.607797432E1
1.918466178E1,7.100701332E-1,4.913960457E0,1.157198906E1
1.919462954E1,7.794619799E-1,3.561118364E0,1.303011608E1
1.920457277E1,1.720439434E0,1.990529299E0,1.193360519E1
1.921453803E1,1.375573874E0,2.134397745E0,7.734200954E0
1.922452933E1,-4.127618968E-1,2.120040894E0,9.881759644E0
1.923449725E1,-4.725824594E-1,3.846163273E0,8.514560699E0
1.924447652E1,-1.591227055E-1,6.065506458E0,5.536393166E0
1.925444558E1,3.798605800E-1,6.446264267E0,8.016553879E0
1.926439371E1,7.052844763E-1,6.448657036E0,5.481059551E0
1.927436063E1,1.031007409E0,6.431907177E0,3.553939819E0
1.928429355E1,9.568299651E-1,5.407180786E0,6.002993584E0
1.929425704E1,1.031007409E0,5.201398373E0,6.321538448E0
1.930425407E1,9.664012194E-1,5.021637440E0,6.817151546E0
1.931422095E1,1.560120344E0,4.866104126E0,1.187139130E1
1.932417360E1,1.923829436E0,4.435096741E0,1.282433319E1
1.933413902E1,1.401894927E0,3.544368505E0,1.278335571E1
1.934411850E1,8.946165442E-1,8.700901270E-1,1.190967655E1
1.935408532E1,7.196413875E-1,-1.088435173E0,1.219920826E1
1.936405949E1,3.750749528E-1,-8.297112584E-1,1.218245792E1
1.937402704E1,-2.093719840E-1,8.150551915E-1,1.154088306E1
1.938398787E1,-6.113662124E-1,2.383251429E0,1.161745262E1
1.939395475E1,-5.754738450E-1,3.376870871E0,1.166291714E1
1.940391964E1,-8.174480200E-1,3.147160053E0,1.112423229E1
1.941388631E1,-8.509475589E-1,2.668296337E0,1.051137066E1
1.942385516E1,-7.073782086E-1,2.483749866E0,8.792427063E0
1.943382204E1,-3.678964823E-2,1.978565216E0,8.545666695E0
1.944377871E1,2.000997961E-1,1.775175333E0,1.007079220E1
1.945374454E1,1.761715710E-1,2.177468538E0,9.872187614E0
1.946372558E1,3.101696372E-1,2.199003935E0,9.833903313E0
1.947369292E1,6.382854581E-1,1.710569143E0,1.049940681E1
1.948366803E1,3.460619748E-1,1.523629785E0,8.912068367E0
1.949363615E1,9.472586513E-1,1.665105462E0,8.483453751E0
1.950358095E1,9.496514797E-1,1.897209287E0,1.011625576E1
1.951354673E1,7.052844763E-1,2.031207323E0,9.654142380E0
1.952353001E1,-5.084748268E-1,2.459821701E0,1.065733337E1
1.953349751E1,-5.108676553E-1,2.948256493E0,1.008036327E1
1.954346542E1,-7.265207767E-1,2.670689106E0,8.167600632E0
1.955343293E1,-5.922235847E-1,2.495713949E0,9.556035995E0
1.956338069E1,-4.654040039E-1,2.383251429E0,9.774082184E0
1.957334621E1,-2.961117961E-2,2.447857618E0,9.745368004E0
1.958333819E1,-4.989035130E-1,2.062613010E0,1.074138069E1
1.959330642E1,-5.108676553E-1,2.294716835E0,1.064536858E1
1.960326475E1,-6.520441771E-1,1.921137452E0,1.057837009E1
1.961323194E1,8.763712645E-2,1.135992527E0,1.074855900E1
1.962318761E1,2.120639086E-1,2.447857618E0,7.851449490E0
1.963315360E1,-2.859423161E-1,2.555534601E0,1.123220825E1
1.964313746E1,-1.567298770E-1,2.557927370E0,1.376979733E1
1.965310527E1,-2.907279432E-1,3.195016384E0,6.936792850E0
1.966307313E1,-1.902294010E-1,2.653939486E0,1.035583687E1
1.967304095E1,1.720439434E0,2.682653189E0,1.192881870E1
1.968298683E1,6.610172242E-2,5.105386257E0,7.928019524E0
1.969295240E1,1.095613718E0,4.526023865E0,6.766902447E0
1.970294845E1,2.833700180E0,5.134099960E0,1.115773201E1
1.971291709E1,2.213660002E0,7.066304207E0,5.849853039E0
1.972287600E1,2.393121719E0,6.817451000E0,6.716653347E0
1.973284365E1,3.501895905E0,6.101398468E0,1.012343407E1
1.974279725E1,3.451347589E0,7.346563816E0,5.129314423E0
1.975276350E1,3.695714474E0,6.956234455E0,6.266503334E0
1.976274454E1,3.384348631E0,5.764010429E0,1.011386299E1
1.977271225E1,1.880758643E0,6.479763508E0,6.599404812E0
1.978267527E1,1.375573874E0,6.247660160E0,7.111767769E0
1.979264251E1,1.332503080E0,5.531607628E0,9.936794281E0
1.980259792E1,1.028614640E0,6.003293037E0,7.080661297E0
1.981256392E1,1.098006487E0,5.759224892E0,7.892127514E0
1.982255287E1,1.275075316E0,5.110171795E0,9.663713455E0
1.983252121E1,6.263213158E-1,5.342574596E0,7.604988575E0
1.984247938E1,6.191428304E-1,4.772783756E0,8.567202568E0
1.985244668E1,6.382854581E-1,4.516452789E0,9.745368004E0
1.986239647E1,2.407777756E-1,4.937888622E0,7.559226036E0
1.987236199E1,-4.396811500E-2,4.851747036E0,8.758927345E0
1.988234397E1,3.460619748E-1,4.760819912E0,9.014959335E0
1.989231115E1,-5.682953633E-3,5.033601761E0,7.609774113E0
1.990229214E1,1.402792335E-1,4.724927425E0,8.347063065E0
1.991226074E1,4.444667995E-1,4.751248360E0,8.502595901E0
1.992220511E1,1.594218016E-1,5.016851902E0,7.719843864E0
1.993217121E1,1.546361595E-1,4.885246754E0,8.885746956E0
1.994215912E1,2.048854381E-1,4.966602325E0,8.928817749E0
1.995212740E1,5.653043464E-2,5.076672554E0,7.995018482E0
1.996208996E1,9.720841795E-2,4.937888622E0,8.512166977E0
1.997205766E1,-9.182456881E-2,4.897210598E0,8.225028992E0
1.998201792E1,-3.625126183E-1,4.973781109E0,7.918448448E0
1.999198485E1,-1.974078715E-1,4.909174919E0,8.519346237E0
2.000196292E1,-3.720839322E-1,5.047958374E0,8.203493118E0
2.001193100E1,-2.045863420E-1,5.191826820E0,8.066802979E0
2.002189548E1,5.521438122E-1,5.162814140E0,8.770891190E0
2.003186318E1,5.569294691E-1,5.239683151E0,8.399704933E0
2.004181006E1,1.283151209E-1,5.340181828E0,7.997411251E0
2.005177558E1,-2.243271284E-2,5.102993488E0,8.445168495E0
2.006175928E1,1.570289880E-1,5.047958374E0,8.368597984E0
2.007172668E1,2.192423791E-1,5.064708233E0,8.162815094E0
2.008168121E1,-3.864408433E-1,5.129314423E0,8.270492554E0
2.009164725E1,-5.874379873E-1,5.249254704E0,7.808378696E0
2.010161975E1,-3.098705411E-1,5.153242588E0,8.387741089E0
2.011158647E1,-1.686939895E-1,4.801497936E0,9.166006088E0
2.012154808E1,-2.476571500E-1,4.971388340E0,8.454739571E0
2.013151428E1,-4.151547253E-1,5.433502197E0,7.624131203E0
2.014150068E1,-7.289136052E-1,5.167599678E0,8.892925262E0
2.015146892E1,-9.370891452E-1,4.813461781E0,8.675178528E0
2.016144574E1,-5.419743061E-1,4.779962540E0,8.514560699E0
2.017141480E1,-1.567298770E-1,4.698606491E0,8.263314247E0
2.018135980E1,-3.266202807E-1,4.899603367E0,8.119744301E0
2.019132647E1,-3.409772217E-1,5.016851902E0,8.011768341E0
2.020127824E1,-1.710868180E-1,5.000102043E0,8.665607452E0
2.021124339E1,1.495514181E-3,5.040780067E0,8.751749039E0
2.022121209E1,4.456632212E-2,5.035994530E0,8.746963501E0
2.023117756E1,-3.266202807E-1,4.885246754E0,8.327919960E0
2.024117824E1,-5.276173949E-1,4.904388905E0,8.423632622E0
2.025114730E1,-2.404786795E-1,4.949852943E0,8.423632622E0
2.026110246E1,-3.050848842E-1,5.131707191E0,8.907281876E0
2.027107011E1,-6.352944374E-1,5.141278744E0,8.629415512E0
2.028105001E1,-1.519442350E-1,5.256433010E0,8.615058899E0
2.029101892E1,-3.290131092E-1,5.074279308E0,8.485846519E0
2.030097537E1,-5.659025311E-1,5.021637440E0,8.466703415E0
2.031094298E1,-6.137589812E-1,5.012066364E0,8.524131775E0
2.032092376E1,-7.528418303E-1,4.971388340E0,8.433204651E0
2.033089266E1,-8.126623631E-1,4.935495853E0,8.571988106E0
2.034084100E1,-4.199403822E-1,5.028815746E0,8.586344719E0
2.035080782E1,-3.744767308E-1,5.050351143E0,8.471489906E0
2.036079574E1,-5.754738450E-1,4.880460739E0,8.528917313E0
2.037076470E1,-7.360920906E-1,5.033601761E0,8.380561829E0
2.038073089E1,-5.036891699E-1,4.925924301E0,7.954340458E0
2.039069959E1,-4.845465720E-1,4.854139805E0,8.675178528E0
2.040067714E1,-3.840480447E-1,4.782355309E0,8.545666695E0
2.041064668E1,-5.946164131E-1,5.081458092E0,8.497810364E0
2.042059662E1,-4.031906128E-1,5.416752338E0,8.629415512E0
2.043056418E1,-1.449452281E0,6.132505417E0,8.682356834E0
2.044053412E1,-1.461416483E0,6.055934906E0,8.153244019E0
2.045050194E1,-1.200598717E0,5.445466042E0,6.532106876E0
2.046046355E1,-1.401595831E0,5.835795403E0,7.128517628E0
2.047043074E1,-1.444666624E0,5.718546867E0,7.319943428E0
2.048038772E1,-1.418345571E0,6.530013084E0,8.378169060E0
2.049035381E1,-9.490532875E-1,6.187540054E0,7.465905666E0
2.050031235E1,-1.224527001E0,6.046363831E0,8.253742218E0
2.051027772E1,-1.164407372E0,5.766403675E0,7.408477783E0
2.052025631E1,-1.044766188E0,5.747261047E0,7.908876896E0
2.053022303E1,-7.839485407E-1,5.636891842E0,8.294420242E0
2.054017782E1,-7.528418303E-1,5.728118420E0,8.186743736E0
2.055014329E1,-5.922235847E-1,5.792724609E0,7.963912010E0
2.056011975E1,-6.496513486E-1,5.596213818E0,7.980661869E0
2.057008631E1,-9.394819736E-1,5.426323414E0,8.306385040E0
2.058004022E1,-8.222336769E-1,5.275575638E0,8.090731621E0
2.059000553E1,-5.036891699E-1,5.254040241E0,8.150851250E0
2.059999293E1,-3.936193287E-1,5.234897614E0,8.234600067E0
2.060996042E1,-4.821537733E-1,5.254040241E0,8.555238724E0
2.061992532E1,-4.175475538E-1,5.510072231E0,8.483453751E0
2.062989256E1,-1.830509305E-1,5.337789059E0,8.172386169E0
2.063984563E1,-2.380858511E-1,5.275575638E0,8.366205215E0
2.064981142E1,-3.936193287E-1,5.409573555E0,8.045268059E0
2.065979032E1,-3.744767308E-1,5.411966801E0,8.035696983E0
2.066975746E1,-3.672982752E-1,5.421537876E0,8.126922607E0
2.067972266E1,-3.984049559E-1,5.476572990E0,8.038089752E0
2.068968954E1,-3.696911037E-1,5.562714577E0,8.083553314E0
2.069964766E1,-5.874379873E-1,5.500501156E0,7.932805061E0
2.070961365E1,-7.073782086E-1,5.493322372E0,8.138887405E0
2.071960881E1,-6.544370055E-1,5.395216942E0,8.064410210E0
2.072957772E1,-6.640082598E-1,5.407180786E0,8.131709099E0
2.073953568E1,-6.496513486E-1,5.493322372E0,8.085946083E0
2.074950350E1,-4.199403822E-1,5.555535793E0,7.856235027E0
2.075945308E1,-3.074777126E-1,5.512465000E0,8.066802979E0
2.076941902E1,-2.572284341E-1,5.395216942E0,8.375776291E0
2.077940537E1,-3.649054468E-1,5.622535229E0,6.551548481E0
2.078937334E1,-4.558327198E-1,4.995316505E0,1.090648556E1
2.079932834E1,-2.787638307E-1,5.031208515E0,8.564809799E0
2.080929506E1,-4.606183469E-1,5.821438313E0,6.719046116E0
