"Time (s)","Gyroscope x (rad/s)","Gyroscope y (rad/s)","Gyroscope z (rad/s)"
2.153530900E-2,-4.394212738E-3,3.595264861E-3,4.261054564E-3
3.153530900E-2,-4.394212738E-3,3.595264861E-3,4.261054564E-3
4.151598600E-2,4.127896391E-3,3.595264861E-3,2.130527282E-3
5.151510000E-2,3.062632866E-3,3.595264861E-3,1.065263641E-3
6.148395500E-2,-3.328948980E-3,1.464737463E-3,-4.261054564E-3
7.137333000E-2,9.321057005E-4,3.595264861E-3,-5.326318089E-3
8.131208000E-2,9.321057005E-4,2.530001104E-3,-8.522109129E-3
9.131890200E-2,1.997369342E-3,3.595264861E-3,-7.456845604E-3
1.012859340E-1,-4.394212738E-3,1.464737463E-3,-7.456845604E-3
1.112794750E-1,-8.655266836E-3,1.464737463E-3,-8.522109129E-3
1.212574440E-1,-1.185105834E-2,1.464737463E-3,-1.065263618E-2
1.311780690E-1,-5.459476262E-3,-6.657897611E-4,-6.391582079E-3
1.411321840E-1,-4.394212738E-3,-1.731053460E-3,-4.261054564E-3
1.511102570E-1,-4.394212738E-3,-1.731053460E-3,-3.195791040E-3
1.610742670E-1,-4.394212738E-3,-1.731053460E-3,-3.195791040E-3
1.710499960E-1,-2.263685223E-3,-2.796316985E-3,-3.195791040E-3
1.810187980E-1,-1.198421582E-3,-4.926844500E-3,-3.195791040E-3
1.909786940E-1,3.062632866E-3,-3.861580743E-3,-5.326318089E-3
2.009437460E-1,6.258423906E-3,-2.796316985E-3,-3.195791040E-3
2.109209860E-1,4.127896391E-3,-1.731053460E-3,-2.130527282E-3
2.208910900E-1,3.062632866E-3,3.994738800E-4,1.065263641E-3
2.308748920E-1,-1.331579551E-4,-6.657897611E-4,3.195791040E-3
2.408506210E-1,-1.198421582E-3,-2.796316985E-3,6.391582079E-3
2.508351000E-1,9.321057005E-4,-3.861580743E-3,7.456845604E-3
2.608144750E-1,3.062632866E-3,-3.861580743E-3,7.456845604E-3
2.707378610E-1,3.062632866E-3,-2.796316985E-3,5.326318089E-3
2.806937980E-1,4.127896391E-3,-1.731053460E-3,5.326318089E-3
2.906903610E-1,4.127896391E-3,3.994738800E-4,4.261054564E-3
3.006632770E-1,9.321057005E-4,-1.731053460E-3,3.195791040E-3
3.106230170E-1,-1.198421582E-3,-2.796316985E-3,3.195791040E-3
3.205903610E-1,3.062632866E-3,-6.657897611E-4,1.065263641E-3
3.305723400E-1,5.193160381E-3,1.464737463E-3,-2.130527282E-3
3.405457770E-1,-1.198421582E-3,1.464737463E-3,-2.130527282E-3
3.504961420E-1,-1.331579551E-4,2.530001104E-3,-2.130527282E-3
3.604598920E-1,5.193160381E-3,3.994738800E-4,-1.065263641E-3
3.704093710E-1,5.193160381E-3,3.994738800E-4,-4.261054564E-3
3.803716630E-1,4.127896391E-3,2.530001104E-3,-6.391582079E-3
3.903514550E-1,4.127896391E-3,2.530001104E-3,-7.456845604E-3
4.003155170E-1,1.997369342E-3,4.660528619E-3,-8.522109129E-3
4.103196320E-1,3.062632866E-3,5.725792143E-3,-7.456845604E-3
4.202877050E-1,9.321057005E-4,5.725792143E-3,-7.456845604E-3
4.302281730E-1,9.321057005E-4,5.725792143E-3,-9.587372653E-3
4.401934340E-1,9.321057005E-4,4.660528619E-3,-1.171789970E-2
4.501722880E-1,1.997369342E-3,4.660528619E-3,-1.171789970E-2
4.601389550E-1,-1.331579551E-4,3.595264861E-3,-1.278316416E-2
4.701652050E-1,-1.331579551E-4,4.660528619E-3,-1.491369121E-2
4.801378610E-1,3.062632866E-3,3.595264861E-3,-1.384842768E-2
4.900387460E-1,-1.331579551E-4,2.530001104E-3,-1.384842768E-2
5.000041110E-1,-6.524739787E-3,1.464737463E-3,-1.171789970E-2
5.099666630E-1,-8.655266836E-3,-6.657897611E-4,-1.171789970E-2
5.199317150E-1,-8.655266836E-3,1.464737463E-3,-8.522109129E-3
5.298996840E-1,-3.328948980E-3,3.994738800E-4,-5.326318089E-3
5.398650480E-1,-1.331579551E-4,1.464737463E-3,-3.195791040E-3
5.498433300E-1,3.062632866E-3,2.530001104E-3,-1.065263641E-3
5.598099960E-1,9.321057005E-4,3.595264861E-3,-2.130527282E-3
5.697788500E-1,1.997369342E-3,3.595264861E-3,-1.065263641E-3
5.797457250E-1,9.321057005E-4,3.595264861E-3,-1.065263641E-3
5.896921840E-1,-1.198421582E-3,1.464737463E-3,-1.065263641E-3
5.996569750E-1,3.062632866E-3,2.530001104E-3,-1.065263641E-3
6.096409860E-1,-1.198421582E-3,2.530001104E-3,-2.130527282E-3
6.196077050E-1,-9.720530361E-3,2.530001104E-3,-4.261054564E-3
6.295734340E-1,-5.459476262E-3,2.530001104E-3,-3.195791040E-3
6.395399960E-1,-4.394212738E-3,3.595264861E-3,-3.195791040E-3
6.494988500E-1,-1.611211337E-2,2.530001104E-3,-3.195791040E-3
6.594646840E-1,-2.143843099E-2,3.595264861E-3,-4.261054564E-3
6.694477570E-1,-1.717737690E-2,2.530001104E-3,-4.261054564E-3
6.794152570E-1,-6.511423737E-2,-5.992108025E-3,-1.065263641E-3
6.893840070E-1,2.223737910E-2,8.921583183E-3,-6.391582079E-3
6.993516630E-1,2.969422378E-2,1.531316526E-2,-4.261054564E-3
7.093029130E-1,3.502054140E-2,1.637842879E-2,-7.456845604E-3
7.192689020E-1,3.608580679E-2,1.957421936E-2,-8.522109129E-3
7.292417150E-1,1.997369342E-3,1.531316526E-2,-7.456845604E-3
7.392083820E-1,-1.398158539E-2,1.211737376E-2,-2.130527282E-3
7.491841630E-1,-3.328948980E-3,1.531316526E-2,1.065263641E-3
7.591517670E-1,-1.185105834E-2,1.531316526E-2,-0.000000000E0
7.691688500E-1,-5.459476262E-3,1.744369231E-2,1.065263641E-3
7.791414020E-1,-4.394212738E-3,1.744369231E-2,-0.000000000E0
7.890455170E-1,-6.524739787E-3,1.957421936E-2,-2.130527282E-3
7.990111420E-1,-1.331579551E-4,2.490053698E-2,-4.261054564E-3
8.089893710E-1,4.127896391E-3,2.596580051E-2,-3.195791040E-3
8.189562460E-1,-2.263685223E-3,2.170474641E-2,-5.326318089E-3
8.289132770E-1,3.062632866E-3,2.063948289E-2,-8.522109129E-3
8.388791630E-1,5.193160381E-3,2.170474641E-2,-1.704421826E-2
8.488517150E-1,-2.263685223E-3,2.277000993E-2,-2.556632832E-2
8.588182250E-1,9.321057005E-4,2.809632942E-2,-2.982738242E-2
8.687955170E-1,9.321057005E-4,2.916159295E-2,-3.302317113E-2
8.787631730E-1,-3.328948980E-3,3.022685647E-2,-3.515370190E-2
8.887161940E-1,3.062632866E-3,3.342264518E-2,-3.834949061E-2
8.986823400E-1,-2.263685223E-3,3.022685647E-2,-4.367581010E-2
9.086641630E-1,-6.524739787E-3,2.916159295E-2,-5.219791830E-2
9.186318710E-1,-3.328948980E-3,2.916159295E-2,-5.858949944E-2
9.285974960E-1,-3.328948980E-3,2.916159295E-2,-6.391581893E-2
9.385649440E-1,-8.655266836E-3,2.703106403E-2,-6.817687303E-2
9.485166630E-1,-1.331579551E-4,2.916159295E-2,-6.817687303E-2
9.584825480E-1,-3.328948980E-3,3.129211813E-2,-6.817687303E-2
9.684712980E-1,-1.331579551E-4,3.235738352E-2,-6.498108059E-2
9.784394750E-1,6.258423906E-3,3.448791057E-2,-6.498108059E-2
9.884021840E-1,-3.328948980E-3,3.555317223E-2,-6.285055727E-2
9.983698400E-1,-3.328948980E-3,3.661843762E-2,-6.072002649E-2
1.008324892E0,3.062632866E-3,3.874896467E-2,-5.645897239E-2
1.018291246E0,1.997369342E-3,3.981423005E-2,-5.326318368E-2
1.028265309E0,9.321057005E-4,3.981423005E-2,-4.793686420E-2
1.038232444E0,1.997369342E-3,4.301001877E-2,-4.261054471E-2
1.048202132E0,-1.331579551E-4,4.301001877E-2,-3.408843651E-2
1.058169475E0,-3.328948980E-3,4.407528415E-2,-2.663159184E-2
1.068133798E0,9.321057005E-4,4.940159991E-2,-1.704421826E-2
1.078100830E0,-3.328948980E-3,5.366265774E-2,-1.491369121E-2
1.088068382E0,-4.394212738E-3,6.111950055E-2,-1.384842768E-2
1.098035413E0,-4.394212738E-3,6.644582003E-2,-1.065263618E-2
1.108012288E0,-1.198421582E-3,6.964161247E-2,-7.456845604E-3
1.117980361E0,-1.198421582E-3,7.283740491E-2,-1.065263641E-3
1.127938277E0,4.127896391E-3,7.709845901E-2,1.065263641E-3
1.137905257E0,5.193160381E-3,7.922898233E-2,5.326318089E-3
1.147882392E0,4.127896391E-3,8.135951310E-2,9.587372653E-3
1.157850413E0,6.258423906E-3,7.922898233E-2,2.024000883E-2
1.167820934E0,6.258423906E-3,7.603318989E-2,2.769685537E-2
1.177789215E0,9.321057005E-4,7.603318989E-2,1.597895473E-2
1.187739736E0,-3.102580272E-2,7.283740491E-2,-1.917474531E-2
1.197706194E0,-2.676474862E-2,6.751108170E-2,-8.522109129E-3
1.207686038E0,1.371526904E-2,6.964161247E-2,-5.432844535E-2
1.217653850E0,-6.831002980E-2,5.259739235E-2,-5.858949944E-2
1.227620152E0,2.330264263E-2,6.857634336E-2,-8.628635854E-2
1.237587809E0,-3.422159329E-2,6.431528926E-2,-9.267793596E-2
1.247545361E0,-4.394212738E-3,6.857634336E-2,-1.129179448E-1
1.257512027E0,9.321057005E-4,6.644582003E-2,-1.267663687E-1
1.267490725E0,-5.459476262E-3,5.792371184E-2,-1.438105851E-1
1.277458538E0,-1.185105834E-2,5.153212696E-2,-1.640505940E-1
1.287428902E0,-2.263685223E-3,4.940159991E-2,-1.747032404E-1
1.297397027E0,-5.459476262E-3,4.620581120E-2,-1.896169335E-1
1.307343173E0,-2.463422157E-2,4.407528415E-2,-1.874863952E-1
1.317309007E0,3.182475269E-2,5.472791940E-2,-1.704421788E-1
1.327290361E0,1.478053257E-2,5.259739235E-2,-1.619200706E-1
1.337257757E0,-1.291632187E-2,4.940159991E-2,-1.565937549E-1
1.347224684E0,-1.198421582E-3,5.472791940E-2,-1.533979625E-1
1.357192027E0,-7.590003312E-3,5.472791940E-2,-1.555284858E-1
1.367154423E0,-2.143843099E-2,5.259739235E-2,-1.597895473E-1
1.377121246E0,1.797632314E-2,5.898897350E-2,-1.565937549E-1
1.387100777E0,-1.824264042E-2,5.259739235E-2,-1.523326933E-1
1.397068902E0,-2.037316747E-2,5.046686530E-2,-1.555284858E-1
1.407038330E0,-5.459476262E-3,5.898897350E-2,-1.512674391E-1
1.417006559E0,-2.569948509E-2,5.472791940E-2,-1.459411234E-1
1.426970517E0,-3.422159329E-2,5.366265774E-2,-1.395495385E-1
1.436938330E0,6.258423906E-3,6.218476593E-2,-1.352884769E-1
1.446907288E0,-2.356895804E-2,5.579318479E-2,-1.363537461E-1
1.456875152E0,-4.807002097E-2,5.366265774E-2,-1.416800618E-1
1.466843434E0,-3.102580272E-2,4.514054582E-2,-1.288969070E-1
1.476811350E0,-9.720530361E-3,7.070687413E-2,-1.203747913E-1
1.486766975E0,-4.394212738E-3,4.620581120E-2,-1.299621612E-1
1.496733642E0,8.388951421E-3,5.153212696E-2,-1.246358454E-1
1.506709788E0,-1.824264042E-2,4.087949172E-2,-1.395495385E-1
1.516677444E0,-4.700475931E-2,3.235738352E-2,-1.555284858E-1
1.526649267E0,-6.524739787E-3,2.703106403E-2,-1.512674391E-1
1.536617288E0,-2.356895804E-2,7.856319658E-3,-1.640505940E-1
1.546572444E0,-2.250369452E-2,3.994738800E-4,-1.778990328E-1
1.556539163E0,2.223737910E-2,4.660528619E-3,-1.800295562E-1
1.566501559E0,-2.889527567E-2,-1.731053460E-3,-1.257011145E-1
1.576467861E0,9.147951752E-2,-3.861580743E-3,2.450106293E-2
1.586446142E0,7.763108611E-2,9.986846708E-3,1.001347825E-1
1.596413590E0,-7.683213800E-2,5.472791940E-2,7.882951200E-2
1.606371038E0,-1.119858399E-1,1.165132076E-1,3.515370190E-2
1.616337496E0,-2.676474862E-2,7.816372067E-2,-6.285055727E-2
1.626295517E0,-1.930790395E-2,4.194475710E-2,-6.924213469E-2
1.636261142E0,-3.635212034E-2,-2.942790836E-2,-1.054610983E-1
1.646251975E0,3.182475269E-2,-5.286370963E-2,-1.129179448E-1
1.656220152E0,-6.724476814E-2,-5.805686861E-2,-8.841688186E-2
1.666174267E0,-5.459476262E-3,-3.155843541E-2,-1.022653133E-1
1.676140986E0,9.893636405E-2,-9.187898599E-3,-9.587372839E-2
1.686091871E0,-1.198421582E-3,-4.221107066E-2,-7.456845790E-2
1.696056975E0,-5.872265995E-2,-7.510108501E-2,-6.924213469E-2
1.706046298E0,-1.291632187E-2,-8.042740822E-2,-8.841688186E-2
1.716013798E0,-3.102580272E-2,-6.657897681E-2,-1.352884769E-1
1.725977392E0,1.158474199E-2,-6.551371515E-2,-1.555284858E-1
1.735944527E0,4.780370742E-2,-7.297056168E-2,-1.182442605E-1
1.745929215E0,-3.422159329E-2,-1.038632020E-1,-9.267793596E-2
1.755898121E0,-4.487423226E-2,-1.091895252E-1,-8.841688186E-2
1.765847184E0,4.780370742E-2,-9.747162461E-2,-8.841688186E-2
1.775814059E0,3.182475269E-2,-1.006674170E-1,-1.182442605E-1
1.785814944E0,-6.524739787E-3,-1.272990108E-1,-1.288969070E-1
1.795785257E0,1.797632314E-2,-1.113200486E-1,-1.470063776E-1
1.805733277E0,2.649843320E-2,-1.230379492E-1,-1.629853398E-1
1.815701350E0,-1.504684892E-2,-1.198421568E-1,-1.502021700E-1
1.825644423E0,-1.023984700E-1,-1.251684725E-1,-1.384842694E-1
1.835609944E0,-7.044056058E-2,-1.187768951E-1,-1.448758543E-1
1.845603850E0,-9.920267761E-2,-1.166463718E-1,-1.672463864E-1
1.855572236E0,-3.635212034E-2,-9.427583218E-2,-1.725727171E-1
1.865521871E0,4.460791498E-2,-7.723161578E-2,-1.736379713E-1
1.875488382E0,-6.617950648E-2,-8.575372398E-2,-1.693769246E-1
1.885475257E0,-1.354216337E-1,-9.960214794E-2,-1.981390417E-1
1.895443798E0,-5.126581341E-2,-6.764423847E-2,-1.992042959E-1
1.905397027E0,-4.807002097E-2,-5.073318258E-2,-2.141179889E-1
1.915364007E0,-6.511423737E-2,-2.942790836E-2,-2.066611499E-1
1.925347340E0,-1.375521719E-1,-3.901528195E-2,-1.565937549E-1
1.935315986E0,-7.683213800E-2,-3.262370080E-2,-1.129179448E-1
1.945251663E0,-3.741738573E-2,-3.262370080E-2,-9.054741263E-2
1.955216975E0,-3.209106624E-2,-3.688475490E-2,-7.137266546E-2
1.965206090E0,-1.291632187E-2,-4.327633604E-2,-8.522108942E-2
1.975173746E0,-5.126581341E-2,-5.179844424E-2,-1.480716467E-1
1.985150673E0,-1.343563795E-1,-8.362319320E-2,-2.119874656E-1
1.995119319E0,1.287637353E-1,-4.966791719E-2,-2.354232669E-1
2.005067652E0,1.490037590E-1,-5.286370963E-2,-2.460758984E-1
2.015034215E0,-1.396826953E-1,-1.081242561E-1,-2.556632757E-1
2.024983642E0,3.075948730E-2,-7.190529257E-2,-2.663159072E-1
2.034948486E0,1.564605981E-1,-5.486107618E-2,-2.343579978E-1
2.044937132E0,8.615319431E-2,-5.699160323E-2,-1.832253486E-1
2.054904319E0,7.230477035E-2,-3.581948951E-2,-1.523326933E-1
2.064877288E0,-9.920267761E-2,-4.221107066E-2,-1.118526831E-1
2.074845100E0,1.543300748E-1,9.986846708E-3,-5.326318368E-2
2.084783642E0,2.298306376E-1,3.874896467E-2,-1.278316416E-2
2.094748434E0,-8.109319210E-2,4.660528619E-3,-3.195790946E-2
2.104763017E0,9.321057005E-4,3.235738352E-2,-7.243792713E-2
2.114732861E0,4.886896908E-2,7.496792823E-2,-7.456845790E-2
2.124697965E0,-1.545963883E-1,4.514054582E-2,-1.150484756E-1
2.134667340E0,-2.889527567E-2,7.496792823E-2,-1.778990328E-1
2.144605413E0,3.395527974E-2,9.094688296E-2,-2.130527347E-1
2.154571559E0,-1.237037405E-1,4.407528415E-2,-2.545980215E-1
2.164540621E0,-1.279647946E-1,-3.861580743E-3,-2.950780392E-1
2.174507132E0,-1.844237745E-1,-5.486107618E-2,-3.290333152E-1
2.184462965E0,1.351553202E-1,-1.984053478E-2,-4.099933505E-1
2.194428382E0,2.308958918E-1,9.986846708E-3,-5.197154880E-1
2.204425621E0,-2.163816839E-1,-4.753739014E-2,-6.315681934E-1
2.214394267E0,4.247738793E-2,-2.197106183E-2,-7.210503221E-1
2.224349788E0,4.822981060E-1,1.424790081E-2,-7.476819158E-1
2.234317080E0,5.952160433E-2,-8.575372398E-2,-7.892271876E-1
2.244281767E0,-3.528685868E-2,-1.336905807E-1,-8.552735448E-1
2.254248798E0,3.225085735E-1,-1.027979404E-1,-8.647277355E-1
2.264206350E0,1.371526904E-2,-1.667137593E-1,-8.732498884E-1
2.274172392E0,2.681801319E-1,-1.198421568E-1,-8.753803968E-1
2.284157705E0,5.376918316E-1,-7.084003091E-2,-8.520777822E-1
2.294125673E0,8.082687855E-2,-1.560611278E-1,-8.796414733E-1
2.304089996E0,-1.185105834E-2,-2.348906398E-1,-9.052077532E-1
2.314057600E0,2.447443157E-1,-2.327601016E-1,-9.254477620E-1
2.324019632E0,7.443529367E-2,-2.593916953E-1,-9.637972713E-1
2.333986663E0,3.182475269E-2,-2.764359117E-1,-9.627320170E-1
2.343927548E0,1.042626798E-1,-2.711096108E-1,-9.542099237E-1
2.353891923E0,-9.387636185E-2,-3.222422600E-1,-9.648625255E-1
2.363883069E0,1.265000552E-2,-3.499391079E-1,-9.627320170E-1
2.373850152E0,1.266332120E-1,-3.435475230E-1,-9.723193645E-1
2.383830309E0,3.075948730E-2,-3.392864764E-1,-1.014929891E0
2.393798746E0,1.265000552E-2,-3.350254297E-1,-1.040496230E0
2.403763902E0,-1.611211337E-2,-3.478085697E-1,-1.024517298E0
2.413731923E0,-5.020054802E-2,-3.499391079E-1,-9.968204498E-1
2.423697496E0,1.735048145E-1,-2.924148738E-1,-9.510141015E-1
2.433665309E0,9.454214945E-3,-3.169159293E-1,-9.073383212E-1
2.443631715E0,-3.315633163E-2,-3.158506751E-1,-8.625972271E-1
2.453599371E0,5.099949613E-2,-2.764359117E-1,-8.456861973E-1
2.463597132E0,-5.552686751E-2,-2.796317041E-1,-8.615319729E-1
2.473567809E0,-3.848264739E-2,-2.977411747E-1,-8.243808746E-1
2.483585621E0,-4.807002097E-2,-3.414169848E-1,-7.093324065E-1
2.493561090E0,9.321057005E-4,-3.296990991E-1,-6.251766086E-1
2.503458277E0,2.830938101E-1,-2.210422009E-1,-6.155892015E-1
2.513425777E0,-1.205079481E-1,-2.487390637E-1,-6.560692191E-1
2.523389423E0,-6.191844866E-2,-2.466085255E-1,-6.603302956E-1
2.533356559E0,8.189214021E-2,-2.689790726E-1,-6.113281846E-1
2.543311663E0,1.691105962E-2,-3.115896285E-1,-5.665870905E-1
2.553277548E0,2.202432603E-1,-2.775011659E-1,-5.186502337E-1
2.563232861E0,7.550056279E-2,-3.083938360E-1,-4.973449707E-1
2.573197705E0,-1.482048035E-1,-3.254380524E-1,-5.197154880E-1
2.583194007E0,-5.552686751E-2,-2.679138184E-1,-5.367597342E-1
2.593161975E0,3.062632866E-3,-2.061285079E-1,-5.367597342E-1
2.603136402E0,7.869634777E-2,-1.848232448E-1,-4.515386224E-1
2.613105048E0,-8.535424620E-2,-2.434127480E-1,-3.386206925E-1
2.623055100E0,-8.855003864E-2,-2.572611570E-1,-2.599243224E-1
2.633021871E0,-1.077247858E-1,-2.487390637E-1,-1.992042959E-1
2.642993434E0,7.443529367E-2,-1.858884990E-1,-1.512674391E-1
2.652960673E0,-5.126581341E-2,-2.071937770E-1,-5.432844535E-2
2.662929007E0,-7.576687634E-2,-2.071937770E-1,5.645897239E-2
2.672896350E0,-8.535424620E-2,-1.997369379E-1,1.427453309E-1
2.682861663E0,-6.191844866E-2,-1.912148297E-1,2.438122183E-1
2.692828798E0,8.189214021E-2,-1.581916511E-1,3.396859467E-1
2.702796871E0,1.904158667E-2,-1.358211190E-1,4.110586047E-1
2.712764111E0,3.395527974E-2,-1.230379492E-1,5.388902426E-1
2.722737496E0,4.141212255E-2,-1.294295341E-1,6.997450590E-1
2.732705309E0,8.402267098E-2,-1.219726875E-1,7.635276914E-1
2.742667444E0,4.993423447E-2,-1.134505793E-1,8.040077090E-1
2.752634684E0,-1.844237745E-1,-1.283642650E-1,8.008119464E-1
2.762602809E0,1.213068962E-1,-6.977476925E-2,8.103992939E-1
2.772570100E0,-1.034637317E-1,-1.379516423E-1,8.263782859E-1
2.782536767E0,-5.339634046E-2,-1.816274524E-1,8.199867010E-1
2.792504007E0,-9.707214683E-2,-2.199769467E-1,7.635276914E-1
2.802448955E0,1.458079666E-1,-1.677790284E-1,5.591302514E-1
2.812413902E0,9.147951752E-2,-1.763011366E-1,3.098585606E-1
2.822386715E0,-1.854890287E-1,-1.720400751E-1,7.030740380E-2
2.832352496E0,8.189214021E-2,-1.049284711E-1,-1.789642870E-1
2.842324267E0,2.000032514E-1,-7.829687744E-2,-3.929491341E-1
2.852290621E0,1.202416345E-1,-8.788424730E-2,-5.910881758E-1
2.862257913E0,7.976161689E-2,-1.209074259E-1,-6.976145506E-1
2.872224319E0,1.051947847E-2,-1.794969290E-1,-7.540735006E-1
2.882182600E0,1.703090221E-1,-1.794969290E-1,-8.297072053E-1
2.892148173E0,8.295740932E-2,-2.103895694E-1,-9.307740927E-1
2.902125517E0,3.715106845E-2,-2.423474789E-1,-9.968204498E-1
2.912092288E0,-2.356895804E-2,-2.828274965E-1,-1.037300467E0
2.922064371E0,7.123950869E-2,-2.977411747E-1,-1.072454214E0
2.932031663E0,-1.737711281E-1,-3.978759646E-1,-1.074584723E0
2.941993850E0,-1.514005959E-1,-4.692486227E-1,-1.019191027E0
2.951960621E0,1.478053257E-2,-4.809665382E-1,-9.616667628E-1
2.961930621E0,-8.855003864E-2,-5.012065172E-1,-9.201214910E-1
2.971897705E0,-1.151816323E-1,-4.937497079E-1,-8.636624813E-1
2.981866455E0,1.478053257E-2,-4.468781054E-1,-8.158587813E-1
2.991833694E0,-2.664490640E-1,-4.799012840E-1,-7.753787637E-1
3.001802444E0,-4.700475931E-2,-4.458128214E-1,-6.805703044E-1
3.011769840E0,-1.045289934E-1,-4.511391521E-1,-5.559344888E-1
3.021733434E0,-1.876195520E-1,-4.308991432E-1,-4.515386224E-1
3.031700413E0,1.511342824E-1,-3.041327596E-1,-3.663175404E-1
3.041669632E0,2.372874767E-1,-1.954758763E-1,-2.492716908E-1
3.051636871E0,-9.174583107E-2,-2.008021921E-1,-8.841688186E-2
3.061601142E0,9.321057005E-4,-2.423474789E-1,1.544632316E-1
3.071568017E0,3.086601496E-1,-2.146506310E-1,4.110586047E-1
3.081530986E0,1.511342824E-1,-1.954758763E-1,6.443513632E-1
3.091497444E0,7.869634777E-2,-1.091895252E-1,8.029424548E-1
3.101478330E0,8.295740932E-2,-1.771000773E-2,9.478183389E-1
3.111446246E0,2.010685205E-2,1.424790081E-2,1.112934232E0
3.121411402E0,-6.724476814E-2,3.022685647E-2,1.293895841E0
3.131379059E0,-7.257108390E-2,9.627319872E-2,1.414270639E0
3.141347809E0,1.051947847E-2,1.591237634E-1,1.474990726E0
3.151315569E0,-7.789740711E-2,1.569932252E-1,1.542102337E0
3.161280621E0,-2.515353858E-1,1.165132076E-1,1.601757050E0
3.171248069E0,-5.459476262E-3,1.282311082E-1,1.584712863E0
3.181218746E0,-1.078579482E-2,8.881635964E-2,1.514405370E0
3.191186507E0,-2.643185556E-1,1.744369231E-2,1.436641216E0
3.201147080E0,-1.268995255E-1,4.833633825E-2,1.349289536E0
3.211114111E0,9.454214945E-3,1.079910994E-1,1.241831064E0
3.221079892E0,-3.209106624E-2,1.143826842E-1,1.137435198E0
3.231046767E0,1.266332120E-1,1.292963773E-1,1.008538365E0
3.241020413E0,7.656582445E-2,7.603318989E-2,8.775109053E-1
3.250988017E0,-3.328948980E-3,2.530001104E-3,7.370292544E-1
3.260945725E0,3.928159550E-2,-2.303632535E-2,5.601955056E-1
3.270912288E0,9.574057162E-2,-7.057371549E-3,3.545996249E-1
3.280894163E0,9.680583328E-2,-1.451421715E-2,1.619200706E-1
3.290862288E0,-4.394212738E-3,-4.327633604E-2,-8.522109129E-3
3.300824267E0,9.254477918E-2,-5.805686861E-2,-1.480716467E-1
3.310791715E0,7.656582445E-2,-9.321057051E-2,-2.609896064E-1
3.320762861E0,-2.569948509E-2,-1.560611278E-1,-3.279680312E-1
3.330730673E0,2.649843320E-2,-1.826927215E-1,-3.822965026E-1
3.340689423E0,-1.258342713E-1,-2.263685167E-1,-4.387554526E-1
3.350656298E0,1.117195264E-1,-1.869537681E-1,-4.824312627E-1
3.360623121E0,2.841590643E-1,-1.368863732E-1,-5.431513190E-1
3.370589996E0,-1.343563795E-1,-2.284990549E-1,-5.846965909E-1
3.380546871E0,7.230477035E-2,-2.189116776E-1,-5.442165732E-1
3.390512757E0,1.468732208E-1,-2.327601016E-1,-4.717786312E-1
3.400495569E0,-8.641951531E-2,-2.508696020E-1,-4.153196514E-1
3.410463173E0,-1.098553166E-1,-2.391516864E-1,-3.631217480E-1
3.420428955E0,-1.291632187E-2,-2.135853618E-1,-2.950780392E-1
3.430396350E0,-3.102580272E-2,-2.050632536E-1,-2.034653574E-1
3.440369319E0,2.330264151E-1,-1.560611278E-1,-5.113265663E-2
3.450337236E0,-1.641837656E-1,-2.284990549E-1,1.182442605E-1
3.460301455E0,-9.494162351E-2,-1.954758763E-1,2.448774725E-1
3.470268955E0,1.287637353E-1,-1.134505793E-1,3.631217480E-1
3.480232757E0,-9.387636185E-2,-6.870950758E-2,4.930838943E-1
3.490199944E0,5.193160381E-3,-1.344895363E-2,6.422207952E-1
3.500165830E0,2.394180000E-1,5.472791940E-2,7.869635224E-1
3.510132809E0,2.170474678E-1,6.325002760E-2,8.977509141E-1
3.520109111E0,4.886896908E-2,3.342264518E-2,1.003211975E0
3.530077027E0,-1.130511016E-1,1.637842879E-2,1.112934232E0
3.540038798E0,1.127847880E-1,7.709845901E-2,1.168327928E0
3.550006090E0,1.904158741E-1,1.250353158E-1,1.170458436E0
3.559974736E0,-1.759016514E-1,9.946899116E-2,1.141696334E0
3.569942132E0,-4.420844018E-1,5.046686530E-2,1.151283622E0
3.579896767E0,-1.045289934E-1,7.816372067E-2,1.196024776E0
3.589862861E0,6.804371625E-2,8.775109053E-2,1.183241606E0
3.599843277E0,-1.545963883E-1,6.964161247E-2,1.127847910E0
3.609810830E0,2.649843320E-2,1.154479459E-1,1.120391011E0
3.619782965E0,2.841590643E-1,1.910816729E-1,1.129978418E0
3.629750934E0,4.247738793E-2,1.814942956E-1,1.116129994E0
3.639713382E0,2.756369673E-2,2.198437899E-1,1.094824672E0
3.649680777E0,4.993423447E-2,2.347574681E-1,1.119325757E0
3.659644527E0,1.404816359E-1,2.518016994E-1,1.157675266E0
3.669611559E0,-4.061317816E-2,2.155827284E-1,1.169393182E0
3.679585569E0,-6.524739787E-3,2.454101145E-1,1.142761588E0
3.689553330E0,7.976161689E-2,2.688459158E-1,1.152348995E0
3.699515673E0,1.553953290E-1,2.741722167E-1,1.151283622E0
3.709482861E0,2.969422378E-2,2.560627460E-1,1.136369944E0
3.719446142E0,1.265000552E-2,2.699111700E-1,1.066062570E0
3.729412913E0,1.266332120E-1,3.263701499E-1,9.552751780E-1
3.739383225E0,5.099949613E-2,2.912164330E-1,8.711193204E-1
3.749350361E0,9.361004084E-2,2.571280003E-1,8.103992939E-1
3.759321975E0,4.673844203E-2,2.475406379E-1,6.912229657E-1
3.769289580E0,-1.684448123E-1,2.187785208E-1,5.303681493E-1
3.779260048E0,2.522011697E-1,2.837595940E-1,3.940143883E-1
3.789227913E0,3.534012139E-1,2.454101145E-1,2.715090811E-1
3.799203902E0,3.928159550E-2,1.420795321E-1,1.012000442E-1
3.809172600E0,1.234374270E-1,1.708416492E-1,-9.054741263E-2
3.819139423E0,1.724395454E-1,2.049300969E-1,-2.514022291E-1
3.829107861E0,2.862896025E-1,1.964079887E-1,-3.588607013E-1
3.839075934E0,1.266332120E-1,1.026647836E-1,-4.408859909E-1
3.849044319E0,2.021337748E-1,1.186437383E-1,-5.111933947E-1
3.859016194E0,2.639190555E-1,1.633848101E-1,-5.761744976E-1
3.868984944E0,-1.215732098E-1,7.816372067E-2,-5.516734123E-1
3.878950309E0,-3.346259296E-1,2.530001104E-3,-4.930838943E-1
3.888918694E0,-1.716406047E-1,6.431528926E-2,-4.323638678E-1
3.898881975E0,4.460791498E-2,1.665806025E-1,-3.631217480E-1
3.908849840E0,-5.126581341E-2,1.420795321E-1,-3.046653867E-1
3.918817705E0,-6.831002980E-2,1.516669095E-1,-2.205095738E-1
3.928785569E0,-1.492700726E-1,1.580584943E-1,-1.597895473E-1
3.938746038E0,-1.824264042E-2,1.900164038E-1,-1.448758543E-1
3.948713173E0,-6.724476814E-2,1.900164038E-1,-1.480716467E-1
3.958668955E0,-7.137266397E-1,2.170474641E-2,-6.178529188E-2
3.968634892E0,3.470096290E-1,1.932121962E-1,8.841688186E-2
3.978592080E0,4.567317963E-1,2.358227372E-1,1.139832065E-1
3.988557132E0,-5.126581341E-2,1.484711170E-1,2.556632832E-2
3.998535517E0,4.748412669E-1,1.910816729E-1,6.391582079E-3
4.008501923E0,3.534012139E-1,1.324921697E-1,4.261054564E-3
4.018471455E0,-2.568616867E-1,1.211737376E-2,-1.257011145E-1
4.028438173E0,-1.567269117E-1,2.703106403E-2,-2.375537902E-1
4.038404632E0,-1.119858399E-1,3.661843762E-2,-1.938779801E-1
4.048371298E0,-1.824264042E-2,5.259739235E-2,-1.182442605E-1
4.058336298E0,-2.802974880E-1,2.596580051E-2,-8.415582776E-2
4.068302757E0,-2.653838098E-1,8.349003643E-2,-1.171789970E-2
4.078262496E0,-2.025332451E-1,1.452753246E-1,3.515370190E-2
4.088228277E0,-8.426235318E-1,1.105211023E-2,5.858949944E-2
4.098205205E0,-6.040045023E-1,1.105211023E-2,1.342232227E-1
4.108172080E0,2.436790615E-1,1.537974328E-1,2.013348341E-1
4.118138590E0,4.141212404E-1,2.251701057E-1,9.800425172E-2
4.128105465E0,1.371526904E-2,1.612542868E-1,1.597895473E-2
4.138076455E0,1.181111038E-1,1.484711170E-1,4.367581010E-2
4.148043746E0,1.968074590E-1,1.537974328E-1,7.456845790E-2
4.158020986E0,-2.195774615E-1,4.940159991E-2,-0.000000000E0
4.167989267E0,-4.932170510E-1,-3.155843541E-2,-3.089264594E-2
4.177945413E0,1.628521830E-1,9.840372950E-2,1.246358454E-1
4.187912444E0,3.640538454E-1,1.697763950E-1,1.608548164E-1
4.197879111E0,-1.215732098E-1,1.250353158E-1,6.072002649E-2
4.207846090E0,2.106558830E-1,1.889511347E-1,1.065263641E-3
4.217816090E0,-1.897500902E-1,6.431528926E-2,-1.065263641E-3
4.227783382E0,-9.490167499E-1,-1.102547869E-1,-4.474107176E-2
4.237748955E0,7.443529367E-2,8.988162130E-2,4.261054564E-3
4.247716090E0,8.155924678E-1,2.613890767E-1,6.391582079E-3
4.257684788E0,-6.157223582E-1,-1.025316212E-2,-7.989477366E-2
4.267652027E0,2.617885470E-1,1.218395308E-1,-9.906952083E-2
4.277625048E0,8.592683077E-1,2.294311523E-1,-1.374190152E-1
4.287592861E0,-1.972069293E-1,1.637842879E-2,-2.780338228E-1
4.297552861E0,-1.026780963E0,-2.125200927E-1,-3.972101808E-1
4.307519840E0,4.673844203E-2,-6.338318437E-2,-2.737727463E-1
4.317489892E0,3.225085735E-1,2.490053698E-2,-1.757684946E-1
4.327457184E0,2.202432603E-1,4.620581120E-2,-2.567285299E-1
4.337430934E0,3.033338189E-1,6.964161247E-2,-3.439469934E-1
4.347398850E0,3.491401672E-1,7.283740491E-2,-2.940127552E-1
4.357361923E0,-1.982721984E-1,-4.540686309E-2,-3.174485564E-1
4.367329371E0,5.898897648E-1,9.840372950E-2,-3.407512009E-1
4.377282965E0,-4.761728346E-1,-1.017326787E-1,-3.929491341E-1
4.387249007E0,-8.799077868E-1,-1.763011366E-1,-2.812296152E-1
4.397234996E0,6.900244951E-1,1.026647836E-1,-5.113265663E-2
4.407203069E0,3.427485824E-1,1.079910994E-1,-2.130527236E-2
4.417163955E0,-9.799094200E-1,-9.108003974E-2,-1.086568907E-1
4.427131246E0,4.311654568E-1,1.772332340E-1,-8.948214352E-2
4.437097757E0,9.391630292E-1,2.688459158E-1,-6.391582079E-3
4.447064996E0,-1.418132186E-1,6.538055837E-2,-7.456845604E-3
4.457034059E0,3.086601496E-1,9.946899116E-2,1.065263641E-3
4.467001455E0,5.504750013E-1,1.250353158E-1,1.257011145E-1
4.476967548E0,2.862896025E-1,7.922898233E-2,2.331595868E-1
4.486934788E0,4.546012580E-1,1.165132076E-1,2.002695650E-1
4.496902496E0,3.523359597E-1,1.047953144E-1,2.523343265E-1
4.506869788E0,2.010685205E-2,2.809632942E-2,2.938795984E-1
4.516838850E0,-2.217079997E-1,-1.451421715E-2,2.981406748E-1
4.526806298E0,1.798963994E-1,8.668582886E-2,3.705785871E-1
4.536773486E0,2.756369710E-1,1.143826842E-1,4.131891429E-1
4.546740882E0,-6.724476814E-2,5.685844645E-2,3.897533417E-1
4.556710673E0,-2.121206224E-1,5.579318479E-2,3.940143883E-1
4.566678330E0,2.394180000E-1,1.910816729E-1,3.673827946E-1
4.576651819E0,3.289001584E-1,2.209090441E-1,2.374206334E-1
4.586620048E0,-4.324970245E-1,3.874896467E-2,1.438105851E-1
4.596574423E0,2.585927546E-1,1.410142779E-1,5.539371073E-2
4.606541246E0,4.748412669E-1,1.431448013E-1,1.171789970E-2
4.616512027E0,-3.328948980E-3,4.301001877E-2,-7.882951200E-2
4.626479267E0,-1.311605871E-1,2.063948289E-2,-1.928127259E-1
4.636443850E0,1.127847880E-1,7.603318989E-2,-2.673811615E-1
4.646410777E0,-3.399522603E-1,-2.516685426E-2,-2.897517085E-1
4.656375152E0,-1.450090110E-1,-5.592634156E-2,-3.269027770E-1
4.666341819E0,-2.717753947E-1,-1.027979404E-1,-3.258375227E-1
4.676320882E0,3.576622605E-1,2.530001104E-3,-2.652506530E-1
4.686288798E0,2.873548567E-1,-1.238369010E-2,-3.247722387E-1
4.696250517E0,-5.552686751E-2,-5.912213027E-2,-3.588607013E-1
4.706217809E0,2.703106403E-1,-5.992108025E-3,-3.300985694E-1
4.716169059E0,-2.717753947E-1,-9.321057051E-2,-3.290333152E-1
4.726134684E0,-9.298419952E-1,-2.625874877E-1,-3.279680312E-1
4.736123225E0,4.418180883E-1,-4.753739014E-2,-2.428801060E-1
4.746091142E0,4.002728164E-1,-3.475422785E-2,-2.087916732E-1
4.756038538E0,7.323687430E-3,-9.960214794E-2,-2.844253778E-1
4.766004371E0,2.000032514E-1,-5.912213027E-2,-3.195790946E-1
4.775990934E0,5.163865685E-1,5.725792143E-3,-2.151832581E-1
4.785958850E0,-4.303665161E-1,-2.103895694E-1,-1.288969070E-1
4.795926246E0,-1.737711281E-1,-2.423474789E-1,3.408843651E-2
4.805894111E0,4.961465299E-1,-1.251684725E-1,1.427453309E-1
4.815860934E0,1.490037590E-1,-6.338318437E-2,1.022653133E-1
4.825828694E0,-1.673795432E-1,-7.190529257E-2,6.391581893E-2
4.835777236E0,7.601987720E-1,8.668582886E-2,1.438105851E-1
4.845743017E0,-4.380896688E-2,-7.936213911E-2,1.736379713E-1
4.855728746E0,-2.163816839E-1,-1.219726875E-1,1.789642870E-1
4.865696559E0,8.752472401E-1,1.069258377E-1,1.288969070E-1
4.875659840E0,1.458079666E-1,2.063948289E-2,7.243792713E-2
4.885627184E0,-2.856238186E-1,-4.860265180E-2,2.343579940E-2
4.895587965E0,3.033338189E-1,4.514054582E-2,5.752423778E-2
4.905554632E0,-5.816339254E-1,-1.177116334E-1,6.604634225E-2
4.915544423E0,-9.852356911E-1,-2.348906398E-1,6.498108059E-2
4.925513434E0,7.932219505E-1,2.809632942E-2,1.086568907E-1
4.935492913E0,5.771065950E-1,4.620581120E-2,4.793686420E-2
4.945462965E0,-3.589938581E-1,-4.860265180E-2,-5.113265663E-2
4.955394007E0,1.840242893E-1,5.366265774E-2,-4.261054471E-2
4.965360100E0,2.127864063E-1,3.235738352E-2,-1.810948178E-2
4.975334059E0,-4.356928170E-1,-1.294295341E-1,-7.350318879E-2
4.985300934E0,-9.468862414E-1,-2.668485343E-1,-1.022653133E-1
4.995269892E0,-3.653854430E-1,-1.720400751E-1,1.278316416E-2
5.005236975E0,7.591335177E-1,1.211737376E-2,2.450106293E-2
5.015191350E0,5.376918316E-1,4.660528619E-3,-9.906952083E-2
5.025157132E0,1.223721579E-1,-7.723161578E-2,-8.628635854E-2
5.035155725E0,2.042642981E-1,-1.230379492E-1,-9.587372653E-3
5.045124840E0,-1.185105834E-2,-2.039979845E-1,2.130527236E-2
5.055062705E0,5.632581562E-2,-2.167811543E-1,-1.384842768E-2
5.065028694E0,1.223721579E-1,-2.125200927E-1,-2.130527282E-3
5.075018746E0,-1.854890287E-1,-2.615222335E-1,9.161267430E-2
5.084987132E0,4.631233811E-1,-1.038632020E-1,1.587242782E-1
5.094926611E0,1.308942735E-1,-1.379516423E-1,2.002695650E-1
5.104892027E0,7.399587631E-1,9.986846708E-3,3.258375227E-1
5.114857757E0,9.178577662E-1,6.111950055E-2,4.121238589E-1
5.124823277E0,-2.238385230E-1,-1.560611278E-1,6.443513632E-1
5.134809111E0,3.523359597E-1,-4.540686309E-2,7.997466922E-1
5.144776611E0,1.042493582E0,1.303616315E-1,8.732498884E-1
5.154766507E0,-5.826992393E-1,-3.581948951E-2,9.179909229E-1
5.164736298E0,-5.603286624E-1,1.464737463E-3,9.403614998E-1
5.174681663E0,8.858999014E-1,2.486059070E-1,1.011734128E0
5.184648955E0,-2.792322338E-1,7.070687413E-2,1.052214146E0
5.194632705E0,-1.112002134E0,-6.870950758E-2,1.082041502E0
5.204601663E0,4.737760127E-1,1.740374416E-1,1.126782656E0
5.214567496E0,3.075948730E-2,1.431448013E-1,1.190698385E0
5.224536142E0,-4.878907502E-1,1.133174226E-1,1.000016212E0
5.234464892E0,1.319595277E-1,2.059953511E-1,9.787109494E-1
5.244429527E0,-2.462090552E-1,1.186437383E-1,9.882983565E-1
5.254416455E0,-4.633896947E-1,3.448791057E-2,8.860330582E-1
5.264383330E0,2.820285559E-1,1.804290265E-1,7.731150985E-1
5.274333642E0,-7.150582224E-2,1.303616315E-1,7.029408216E-1
5.284298798E0,-2.366216928E-1,6.644582003E-2,6.123934388E-1
5.294314267E0,2.223737910E-2,8.881635964E-2,5.420860648E-1
5.304284580E0,-3.954791278E-2,1.026647836E-1,3.854922652E-1
5.314249684E0,-2.195774615E-1,6.751108170E-2,2.246374637E-1
5.324219423E0,7.763108611E-2,6.964161247E-2,1.075916290E-1
5.334151611E0,-1.950764060E-1,-5.592634156E-2,2.982738242E-2
5.344117496E0,-1.673795432E-1,-6.870950758E-2,-9.693899006E-2
5.354080100E0,1.735048145E-1,-6.657897611E-4,-1.587242782E-1
5.364045673E0,-3.069290817E-1,-1.027979404E-1,-1.438105851E-1
5.374044996E0,-4.644549489E-1,-1.581916511E-1,-7.243792713E-2
5.384013955E0,9.254477918E-2,-6.764423847E-2,-6.072002649E-2
5.393958538E0,-1.812279820E-1,-1.059937328E-1,-4.687159881E-2
5.403925048E0,-8.322372288E-2,-8.681898564E-2,-1.704421826E-2
5.413909423E0,-2.739059031E-1,-1.177116334E-1,5.539371073E-2
5.423877705E0,-1.407080054E0,-2.924148738E-1,1.747032404E-1
5.433830569E0,-2.143843099E-2,2.530001104E-3,1.587242782E-1
5.443797288E0,4.535360038E-1,1.058605760E-1,1.555284858E-1
5.453767184E0,1.681784987E-1,8.135951310E-2,2.066611499E-1
5.463734215E0,8.422240615E-1,1.719069183E-1,3.524691164E-1
5.473733590E0,-4.474107325E-1,-7.616634667E-2,5.175849795E-1
5.483703902E0,-7.968171835E-1,-1.358211190E-1,5.410207510E-1
5.493644059E0,7.857651114E-1,1.825595498E-1,4.526038766E-1
5.503611298E0,-5.155876279E-1,-1.877527125E-2,3.801659644E-1
5.513627392E0,-8.096003532E-1,-9.960214794E-2,4.249070287E-1
5.523599580E0,4.716454744E-1,6.964161247E-2,4.398207366E-1
5.533579840E0,-1.673795432E-1,-6.657897611E-4,3.865575492E-1
5.543552861E0,-5.443497300E-1,-5.379581451E-2,3.322291076E-1
5.553456298E0,2.575274706E-1,7.922898233E-2,3.237069845E-1
5.563422236E0,-4.303665161E-1,-5.699160323E-2,3.226417303E-1
5.573385309E0,-6.018739343E-1,-8.788424730E-2,2.470080107E-1
5.583350934E0,-1.611211337E-2,9.986846708E-3,1.896169335E-1
5.593313330E0,8.402267098E-2,-5.992108025E-3,1.810948253E-1
5.603278642E0,2.330264151E-1,-4.860265180E-2,1.736379713E-1
5.613252705E0,6.005423665E-1,-5.992108025E-3,1.938779801E-1
5.623218902E0,-9.920267761E-2,-1.027979404E-1,1.885516644E-1
5.633165777E0,-3.282343447E-1,-9.108003974E-2,1.864211410E-1
5.643129996E0,-1.109205782E-1,-5.073318258E-2,2.182458937E-1
5.653105413E0,1.158474199E-2,-4.008054361E-2,3.215764761E-1
5.663070777E0,-1.822932363E-1,-8.681898564E-2,3.822965026E-1
5.673031975E0,-5.049349666E-1,-1.390169114E-1,4.483428299E-1
5.682996871E0,9.680583328E-2,-1.344895363E-2,5.303681493E-1
5.692968173E0,4.844286442E-1,8.988162130E-2,6.038713455E-1
5.702933694E0,2.383527458E-1,4.727107286E-2,6.858966351E-1
5.712918121E0,1.045689464E0,2.411490530E-1,7.837677002E-1
5.722885569E0,7.028076649E-1,2.645848691E-1,9.606015086E-1
5.732859840E0,7.028076649E-1,3.029343486E-1,1.088433146E0
5.742827965E0,1.133041024E0,3.636543751E-1,1.172588944E0
5.752771507E0,2.841590643E-1,2.155827284E-1,1.119325757E0
5.762737132E0,-1.727058738E-1,1.527321786E-1,9.755151868E-1
5.772712132E0,-5.339634046E-2,1.591237634E-1,8.764456511E-1
5.782678694E0,9.680583328E-2,2.198437899E-1,8.657930493E-1
5.792663017E0,4.098601937E-1,3.561975360E-1,9.137299061E-1
5.802631350E0,-1.982721984E-1,2.539322078E-1,8.711193204E-1
5.812578538E0,-5.305013061E-1,1.271658540E-1,9.499488473E-1
5.822544736E0,-3.175817132E-1,1.079910994E-1,1.029843569E0
5.832531819E0,3.043990731E-1,2.017343044E-1,1.084172130E0
5.842500100E0,1.872200817E-1,1.996037811E-1,9.957551956E-1
5.852460361E0,-5.339634046E-2,2.017343044E-1,9.499488473E-1
5.862427809E0,4.854938984E-1,3.125217259E-1,1.017060518E0
5.872382444E0,4.737760127E-1,3.444796205E-1,1.030908942E0
5.882348642E0,1.957421899E-1,3.167827725E-1,8.860330582E-1
5.892334215E0,4.439486265E-1,3.434143662E-1,7.402250767E-1
5.902302340E0,-6.617950648E-2,2.187785208E-1,6.805703044E-1
5.912268225E0,-1.439437568E-1,1.612542868E-1,5.921534300E-1
5.922236090E0,-6.085318699E-2,1.463405937E-1,5.687175989E-1
5.932185361E0,9.454214945E-3,1.516669095E-1,6.262418628E-1
5.942151350E0,1.511342824E-1,2.113216817E-1,6.709829569E-1
5.952132913E0,2.543316968E-2,2.166479975E-1,6.603302956E-1
5.962100465E0,2.010685205E-2,2.091911435E-1,6.613955498E-1
5.972066038E0,4.364917874E-1,2.273006290E-1,7.167892456E-1
5.982033382E0,2.500706315E-1,1.431448013E-1,6.262418628E-1
5.991990361E0,3.629885912E-1,1.250353158E-1,5.229113102E-1
6.001956663E0,7.633945346E-1,2.038648278E-1,4.781702161E-1
6.011935257E0,1.478053257E-2,1.388837546E-1,3.737743795E-1
6.021902757E0,3.928159550E-2,2.113216817E-1,2.502037883E-1
6.031867705E0,1.808284968E-1,2.262353599E-1,2.608564198E-1
6.041834944E0,-6.018739343E-1,6.538055837E-2,2.736395895E-1
6.051793277E0,2.798980176E-1,2.241048366E-1,2.821617126E-1
6.061759632E0,2.117211521E-1,1.708416492E-1,2.842922211E-1
6.071741194E0,-5.805686712E-1,2.916159295E-2,2.970753908E-1
6.081709059E0,2.245043069E-1,2.347574681E-1,2.715090811E-1
6.091676559E0,1.798963994E-1,2.858901322E-1,3.045322299E-1
6.101644371E0,1.085237339E-1,2.816290855E-1,3.886880577E-1
6.111594215E0,3.257043660E-1,2.933469713E-1,4.675175846E-1
6.121560205E0,2.223737836E-1,3.018690944E-1,5.580649972E-1
6.131545569E0,-5.233107507E-2,2.763027549E-1,5.367597342E-1
6.141513486E0,3.182475269E-2,2.997385561E-1,4.675175846E-1
6.151487132E0,-1.929458827E-1,2.251701057E-1,5.090628862E-1
6.161455621E0,2.010685056E-1,2.741722167E-1,6.294376254E-1
6.171400257E0,1.777658761E-1,2.645848691E-1,6.645913720E-1
6.181366350E0,-3.122554123E-1,2.123869359E-1,6.539387107E-1
6.191345621E0,-4.314317703E-1,2.081258893E-1,7.018755674E-1
6.201313017E0,1.968074590E-1,2.933469713E-1,8.199867010E-1
6.211304215E0,4.247738793E-2,2.454101145E-1,8.956204057E-1
6.221274007E0,-2.462090552E-1,1.996037811E-1,1.006407857E0
6.231232236E0,7.676556110E-1,4.456796646E-1,1.020256281E0
6.241200882E0,-9.281109273E-2,3.295659423E-1,9.819067717E-1
6.251172340E0,-7.680550814E-1,1.857553422E-1,8.934898973E-1
6.261141246E0,-1.769669205E-1,2.549974918E-1,9.286435843E-1
6.271105621E0,-2.472743243E-1,2.358227372E-1,1.007473111E0
6.281074059E0,-1.130511016E-1,2.241048366E-1,1.125717402E0
6.291016194E0,1.010535717E0,3.934817612E-1,1.185372114E0
6.300981975E0,6.570013762E-1,4.382228255E-1,1.192829013E0
6.310975465E0,1.298290044E-1,4.211786091E-1,1.067127824E0
6.320944059E0,3.299654126E-1,4.627238810E-1,9.659277797E-1
6.330913642E0,-1.865542978E-1,3.785680532E-1,8.572708964E-1
6.340882340E0,-7.115961313E-1,2.677806616E-1,8.082687855E-1
6.350817080E0,-1.185105834E-2,3.668501675E-1,9.265130758E-1
6.360782340E0,3.491401672E-1,4.371575713E-1,1.001081467E0
6.370775934E0,1.351553202E-1,4.275701940E-1,9.115993381E-1
6.380744059E0,3.374222517E-1,5.083971024E-1,7.741803527E-1
6.390695830E0,6.868287325E-1,5.893571377E-1,7.423555851E-1
6.400662288E0,3.928159773E-1,5.211802125E-1,6.571345329E-1
6.410641142E0,2.330264151E-1,5.062665343E-1,4.728438854E-1
6.420608850E0,-1.279647946E-1,4.339617789E-1,2.853575051E-1
6.430568746E0,-8.255793452E-1,2.901511788E-1,2.555301189E-1
6.440535621E0,-7.691203356E-1,2.752375007E-1,3.290333152E-1
6.450501194E0,4.865591824E-1,4.797681272E-1,4.131891429E-1
6.460467965E0,8.038745522E-1,5.776392221E-1,4.302333593E-1
6.470416246E0,2.617885470E-1,4.467449486E-1,2.576606572E-1
6.480381142E0,4.929507375E-1,4.414186180E-1,1.683116555E-1
6.490366246E0,6.761760712E-1,4.860265255E-1,1.299621612E-1
6.500333173E0,6.165213138E-2,3.668501675E-1,-1.150484756E-1
6.510307080E0,3.278348744E-1,3.498059511E-1,-2.748380303E-1
6.520274736E0,1.628521830E-1,1.772332340E-1,-2.769685388E-1
6.530227652E0,3.640538454E-1,1.420795321E-1,-3.163833022E-1
6.540193746E0,9.988178015E-1,2.613890767E-1,-4.728438854E-1
6.550177548E0,7.049382329E-1,2.347574681E-1,-6.699176431E-1
6.560145465E0,2.724411786E-1,1.644500792E-1,-7.753787637E-1
6.570110777E0,3.278348744E-1,1.559279710E-1,-7.998798490E-1
6.580078434E0,-1.034637317E-1,8.668582886E-2,-7.966840267E-1
6.590052548E0,-4.058654606E-1,4.514054582E-2,-7.519429922E-1
6.600020830E0,-6.191844866E-2,8.668582886E-2,-7.167892456E-1
6.609980882E0,1.904158741E-1,9.520793706E-2,-6.848313808E-1
6.619948330E0,-2.463422157E-2,6.005423889E-2,-7.583345771E-1
6.629911663E0,3.075948656E-1,1.719069183E-1,-8.636624813E-1
6.639878642E0,6.985466480E-1,2.262353599E-1,-8.020103574E-1
6.649849267E0,-5.659212917E-2,4.407528415E-2,-7.508777380E-1
6.659816611E0,-4.857602119E-1,-7.403582335E-2,-6.965492368E-1
6.669776142E0,-3.328948980E-3,-2.090579830E-2,-6.241113544E-1
6.679742705E0,1.767006069E-1,3.555317223E-2,-5.708481669E-1
6.689717600E0,-2.344911546E-1,-4.008054361E-2,-5.474123359E-1
6.699684996E0,1.351553202E-1,2.170474641E-2,-4.824312627E-1
6.709639944E0,1.298290044E-1,5.259739235E-2,-4.195807278E-1
6.719606038E0,-4.761728346E-1,-6.977476925E-2,-3.684480488E-1
6.729582132E0,-1.183774248E-1,-6.338318437E-2,-2.226400971E-1
6.739549267E0,4.482096732E-1,1.424790081E-2,-8.841688186E-2
6.749521559E0,2.777675092E-1,1.105211023E-2,-4.687159881E-2
6.759489215E0,5.526055098E-1,8.455529809E-2,-4.261054564E-3
6.769464632E0,1.010668874E-1,-3.861580743E-3,1.438105851E-1
6.779433069E0,-2.089248300E-1,-6.338318437E-2,3.311638236E-1
6.789392861E0,-9.362335801E-1,-2.540653646E-1,4.195807278E-1
6.799360361E0,-1.426254869E0,-3.360906839E-1,5.516734123E-1
6.809321767E0,7.697861195E-1,9.627319872E-2,8.221172094E-1
6.819288642E0,6.154560447E-1,1.154479459E-1,9.137299061E-1
6.829249267E0,-1.403884292E0,-1.784316599E-1,9.819067717E-1
6.839215517E0,-6.551371217E-1,-5.179844424E-2,1.225852132E0
6.849195205E0,4.844286442E-1,1.729721874E-1,1.496295929E0
6.859162809E0,-2.813627720E-1,9.520793706E-2,1.660346508E0
6.869119007E0,3.608580679E-2,1.697763950E-1,1.698696017E0
6.879085413E0,5.526055098E-1,2.773680091E-1,1.793504477E0
6.889047080E0,-3.016027808E-1,1.314269006E-1,1.942508221E0
6.899013017E0,5.430181623E-1,2.997385561E-1,2.014946222E0
6.908998798E0,8.582029939E-1,4.030691385E-1,1.903093457E0
6.918966715E0,-3.516701460E-1,2.358227372E-1,1.759416103E0
6.928931298E0,-1.159938931E0,4.407528415E-2,1.647563338E0
6.938898902E0,2.117211521E-1,2.081258893E-1,1.795634985E0
6.948858121E0,7.985482812E-1,3.732417524E-1,1.956356645E0
6.958824840E0,-2.676474862E-2,3.008038104E-1,1.741306543E0
6.968808277E0,-9.000146389E-1,1.324921697E-1,1.571929693E0
6.978776663E0,-3.717769980E-1,2.038648278E-1,1.732784510E0
6.988733486E0,1.149153188E-1,2.603237927E-1,1.738110781E0
6.998700725E0,2.894853950E-1,3.402185738E-1,1.543167591E0
7.008658121E0,-1.237037405E-1,2.368880063E-1,1.406813741E0
7.018624371E0,8.763124943E-1,4.094607234E-1,1.403617978E0
7.028605100E0,6.133255363E-1,3.902859688E-1,1.349289536E0
7.038572809E0,-1.492700726E-1,2.858901322E-1,1.183241606E0
7.048543902E0,-4.807002097E-2,2.890859246E-1,1.102281570E0
7.058511871E0,4.972118139E-1,4.201133549E-1,1.105477333E0
7.068469111E0,-3.388870060E-1,2.986733019E-1,1.014929891E0
7.078436038E0,3.715106845E-1,4.307659864E-1,1.009603620E0
7.088409840E0,8.134619594E-1,4.637891650E-1,1.006407857E0
7.098377444E0,-3.760380745E-1,2.432795912E-1,9.744499326E-1
7.108355361E0,3.597927988E-1,4.669849575E-1,8.583361506E-1
7.118324007E0,9.519461989E-1,6.362286806E-1,7.487471700E-1
7.128266455E0,-1.119858399E-1,4.020038545E-1,6.273071170E-1
7.138232444E0,-1.375521719E-1,3.455449045E-1,5.623260736E-1
7.148212548E0,7.388935089E-1,5.179844499E-1,5.506081581E-1
7.158179944E0,1.649827063E-1,4.488754570E-1,5.314334035E-1
7.168152184E0,4.801675975E-1,5.020055175E-1,3.918838501E-1
7.178120048E0,9.402283430E-1,5.083971024E-1,3.343596160E-1
7.188071923E0,2.159821987E-1,3.636543751E-1,2.448774725E-1
7.198038173E0,6.985466480E-1,4.913528562E-1,1.043958366E-1
7.208018850E0,2.767022252E-1,3.838943839E-1,-9.800425172E-2
7.217986559E0,-1.850096583E0,-3.861580743E-3,-2.439453751E-1
7.227958434E0,1.272457361E0,4.776375890E-1,-3.728422895E-2
7.237926559E0,2.629337072E0,6.554034352E-1,5.645897239E-2
7.247876871E0,4.375570416E-1,3.551322520E-1,-2.024000883E-1
7.257843173E0,-9.607346654E-1,2.177132517E-1,-2.961432934E-1
7.267810934E0,4.567318037E-2,2.869553864E-1,-2.396843135E-1
7.277777340E0,2.021337748E-1,2.997385561E-1,-3.822965026E-1
7.287761715E0,-8.961530030E-2,2.155827284E-1,-3.812312186E-1
7.297729944E0,2.671148479E-1,1.623195410E-1,-2.609896064E-1
7.307688121E0,2.703106403E-1,1.527321786E-1,-1.448758543E-1
7.317655361E0,2.404832691E-1,2.613890767E-1,-1.949432492E-1
7.327622913E0,8.615319431E-2,3.167827725E-1,-2.812296152E-1
7.337590152E0,4.226433635E-1,3.338269889E-1,-1.896169335E-1
7.347567496E0,2.756369673E-2,1.719069183E-1,-1.427453309E-1
7.357535725E0,-2.675143182E-1,1.239700541E-1,-1.001347825E-1
7.367490257E0,6.026729345E-1,3.700459599E-1,-5.645897239E-2
7.377457080E0,4.141212404E-1,3.455449045E-1,-1.278316416E-2
7.387451975E0,9.321057005E-4,2.209090441E-1,9.374319762E-2
7.397421663E0,5.728455186E-1,3.466101587E-1,1.640505940E-1
7.407381923E0,-1.769669205E-1,2.443448454E-1,1.906821877E-1
7.417350621E0,-4.463454783E-1,1.974732429E-1,2.661827505E-1
7.427309163E0,1.511342824E-1,2.731069624E-1,3.290333152E-1
7.437276871E0,-4.612591565E-1,1.687111259E-1,3.822965026E-1
7.447233173E0,-5.763076544E-1,1.601890177E-1,4.888228476E-1
7.457199684E0,7.314366698E-1,4.030691385E-1,6.347639561E-1
7.467181350E0,1.596563905E-1,2.347574681E-1,7.146587372E-1
7.477149371E0,3.747064769E-1,2.549974918E-1,7.720498443E-1
7.487109163E0,6.495444775E-1,3.519364893E-1,8.008119464E-1
7.497076350E0,2.756369710E-1,3.221091032E-1,8.338351250E-1
7.507048434E0,-1.141163707E-1,1.857553422E-1,7.933551073E-1
7.517016142E0,-3.973433375E-1,9.733846784E-2,7.635276914E-1
7.526977705E0,-1.737711281E-1,1.527321786E-1,9.627320170E-1
7.536944736E0,6.186518669E-1,3.593933284E-1,1.103346825E0
7.546904319E0,7.230477035E-2,3.146522343E-1,1.077780485E0
7.556870621E0,1.691105962E-2,2.965427637E-1,1.119325757E0
7.566829944E0,1.532648057E-1,3.540669978E-1,1.175784707E0
7.576795517E0,-2.280995846E-1,3.359575272E-1,1.159805775E0
7.586774944E0,-3.962780833E-1,2.720417082E-1,1.136369944E0
7.596741871E0,-3.635212034E-2,2.965427637E-1,1.206677437E0
7.606707965E0,-2.611227632E-1,2.464753687E-1,1.337571621E0
7.616674840E0,7.474156022E-1,4.510059953E-1,1.395095944E0
7.626650361E0,4.514054656E-1,3.870901763E-1,1.350354791E0
7.636618121E0,-1.055942550E-1,3.561975360E-1,1.316266418E0
7.646581455E0,1.000948310E0,5.744433999E-1,1.292830586E0
7.656548746E0,3.960117698E-1,4.563323259E-1,1.209873199E0
7.666500361E0,-5.454149842E-1,3.082606792E-1,1.102281570E0
7.676466038E0,4.822981060E-1,4.755070508E-1,1.123586774E0
7.686464059E0,3.459443748E-1,4.733765423E-1,1.193894267E0
7.696432965E0,-4.825644195E-1,3.700459599E-1,1.109738350E0
7.706386663E0,-1.535311192E-1,4.892223179E-1,1.019191027E0
7.716354059E0,5.568665862E-1,6.692518592E-1,1.119325757E0
7.726306298E0,4.127896391E-3,4.829638898E-1,1.121456265E0
7.736272132E0,4.759065211E-1,4.818986356E-1,1.070323586E0
7.746259319E0,7.229145169E-1,5.584644675E-1,9.382309318E-1
7.756227288E0,1.371526904E-2,4.881570637E-1,7.997466922E-1
7.766193798E0,-3.516701460E-1,3.945470154E-1,6.912229657E-1
7.776161611E0,1.149153188E-1,4.902876019E-1,7.498124242E-1
7.786126194E0,4.375570416E-1,5.861613154E-1,8.093340397E-1
7.796093642E0,7.676556110E-1,6.532729268E-1,7.167892456E-1
7.806042652E0,5.632581562E-2,5.563339591E-1,5.740439296E-1
7.816008277E0,-2.611227632E-1,5.307676196E-1,6.230461001E-1
7.825976559E0,-1.130511016E-1,5.020055175E-1,6.720482111E-1
7.835942444E0,-1.844237745E-1,4.478102028E-1,6.209155321E-1
7.845934632E0,-1.252616882E0,2.954775095E-1,5.122586489E-1
7.855903173E0,2.937464416E-1,6.202497482E-1,7.434208393E-1
7.865845100E0,1.400289059E0,7.427550554E-1,7.645930052E-1
7.875810934E0,6.207823753E-1,5.414202213E-1,7.476819158E-1
7.885774736E0,1.002013564E0,6.319676638E-1,6.464818716E-1
7.895740361E0,1.033971548E0,7.502118945E-1,5.356944799E-1
7.905720621E0,-4.069307148E-1,6.362286806E-1,2.789659202E-1
7.915687705E0,-7.126613855E-1,5.201149583E-1,9.480846673E-2
7.925664319E0,9.807083607E-1,7.352982163E-1,4.195807278E-1
7.935632392E0,8.475503922E-1,6.735129356E-1,6.262418628E-1
7.945584267E0,-3.653854430E-1,5.073317885E-1,5.399554968E-1
7.955550673E0,-1.663142890E-1,7.118624449E-1,4.142543972E-1
7.965512548E0,-2.515353858E-1,8.066709042E-1,3.631217480E-1
7.975478486E0,-2.984069884E-1,7.076013684E-1,4.952144325E-1
7.985470048E0,7.017424107E-1,7.470161319E-1,6.038713455E-1
7.995438538E0,1.069125175E0,7.374287844E-1,4.249070287E-1
8.005414840E0,3.608580530E-1,5.787044764E-1,1.512674391E-1
8.015384163E0,8.017440438E-1,5.914876461E-1,-7.456845790E-2
8.025317340E0,6.122602820E-1,5.467465520E-1,-4.366249442E-1
8.035282965E0,-3.442133069E-1,3.860249221E-1,-8.796414733E-1
8.045286090E0,-4.761728346E-1,2.677806616E-1,-1.241831064E0
8.055255517E0,-6.511423737E-2,2.315616906E-1,-1.425988555E0
8.065221402E0,-2.569948509E-2,1.101216301E-1,-1.504818082E0
8.075190465E0,-1.993374527E-1,8.242477477E-2,-1.624127626E0
8.085137705E0,9.893636405E-2,2.283658981E-1,-1.786047697E0
8.095104527E0,5.579318404E-1,3.167827725E-1,-1.906422496E0
8.105074788E0,2.415485233E-1,1.804290265E-1,-1.919205666E0
8.115041975E0,3.012032807E-1,1.591237634E-1,-1.943573475E0
8.125013798E0,1.063932031E-1,1.101216301E-1,-1.986184001E0
8.134981455E0,-1.929458827E-1,2.063948289E-2,-2.034121037E0
8.144942809E0,4.663191736E-1,2.809632942E-2,-1.941442966E0
8.154909788E0,3.043990731E-1,-1.771000773E-2,-1.725327611E0
8.164881038E0,-3.538006842E-1,-1.155811027E-1,-1.522927523E0
8.174848486E0,-2.131858915E-1,-9.534109384E-2,-1.288702726E0
8.184806194E0,1.265000552E-2,-1.131842658E-2,-1.121456265E0
8.194772600E0,2.351569533E-1,3.981423005E-2,-1.051148891E0
8.204742757E0,-7.819035053E-1,-2.476737946E-1,-8.711193204E-1
8.214709527E0,-8.426235318E-1,-3.478085697E-1,-6.060018539E-1
8.224701663E0,2.777675092E-1,-1.241032109E-1,-3.418164849E-1
8.234671038E0,6.420876384E-1,1.569932252E-1,-1.736379713E-1
8.244612600E0,3.949464858E-1,1.729721874E-1,-2.141179889E-1
8.254579111E0,1.162868381E0,1.612542868E-1,-5.965476483E-2
8.264557600E0,6.271739602E-1,2.063948289E-2,1.768337637E-1
8.274525361E0,2.053295672E-1,-7.829687744E-2,2.395511568E-1
8.284492861E0,2.500706315E-1,-9.960214794E-2,1.661811322E-1
8.294460569E0,-4.910865426E-1,-2.242379934E-1,2.438122183E-1
8.304424527E0,-1.645565987E0,-4.138549268E-1,2.981406748E-1
8.314391871E0,-1.822932363E-1,-1.432779580E-1,4.568649530E-1
8.324371559E0,8.869651556E-1,1.559279710E-1,6.049365997E-1
8.334340100E0,7.443529367E-2,1.601890177E-1,7.912245989E-1
8.344298434E0,-5.060002208E-1,1.026647836E-1,7.274419069E-1
8.354265934E0,1.553953290E-1,2.645848691E-1,7.795066833E-1
8.364250048E0,-7.446193099E-1,7.070687413E-2,8.562056422E-1
8.374219215E0,-1.022519946E0,-3.368896246E-2,8.966856599E-1
8.384173121E0,-1.801627129E-1,1.111868918E-1,9.222519994E-1
8.394140777E0,-5.020054802E-2,1.910816729E-1,9.062730670E-1
8.404079736E0,-2.291648388E-1,1.708416492E-1,9.265130758E-1
8.414044423E0,4.791023135E-1,2.667153776E-1,1.037300467E0
8.424032080E0,1.181111038E-1,2.379532605E-1,1.071388960E0
8.433999111E0,-1.087900475E-1,1.953427196E-1,1.023452044E0
8.443970830E0,2.543317080E-1,2.336922139E-1,9.542099237E-1
8.453938330E0,-1.727058738E-1,1.452753246E-1,8.860330582E-1
8.463927132E0,2.436790615E-1,2.326269448E-1,8.604667187E-1
8.473896767E0,4.567317963E-1,3.327617347E-1,7.645930052E-1
8.483845777E0,-3.643201590E-1,2.571280003E-1,6.379597783E-1
8.493813277E0,-4.250401855E-1,2.997385561E-1,5.165197253E-1
8.503781507E0,-2.057290375E-1,3.242396116E-1,4.664523304E-1
8.513749059E0,-9.831051826E-1,1.026647836E-1,4.302333593E-1
8.523697184E0,-5.155876279E-1,6.644582003E-2,3.812312186E-1
8.533662809E0,7.580682635E-1,2.645848691E-1,2.045306265E-1
8.543647965E0,1.124518991E0,3.998733461E-1,1.523326933E-1
8.553615517E0,1.084038854E0,4.414186180E-1,1.278316416E-2
8.563582861E0,9.178577662E-1,3.956122994E-1,-8.628635854E-2
8.573550413E0,3.448790908E-1,2.560627460E-1,-1.512674391E-1
8.583673277E0,8.388951421E-3,1.612542868E-1,-3.226417303E-1
8.593656507E0,-3.848264739E-2,1.516669095E-1,-4.334291518E-1
8.603510882E0,-1.717737690E-2,1.591237634E-1,-3.588607013E-1
8.613481090E0,-7.531414032E-1,7.390266657E-2,-3.025348783E-1
8.623381559E0,-2.602971792E0,-2.977411747E-1,-3.631217480E-1
8.633344736E0,-1.103479981E0,-2.423474789E-1,-3.982754350E-1
8.643307132E0,1.825196147E0,3.434143662E-1,-4.131891429E-1
8.653270205E0,7.825692892E-1,3.285006881E-1,-5.495429039E-1
8.663269215E0,-1.444231153E0,-3.475422785E-2,-8.382292986E-1
8.673235934E0,5.494097471E-1,2.049300969E-1,-3.652522564E-1
8.683204892E0,5.153213143E-1,1.708416492E-1,-2.716422379E-1
8.693171819E0,-8.351666927E-1,-7.297056168E-2,-4.046670198E-1
8.703146767E0,-6.617950648E-2,1.850895584E-2,-4.185154438E-1
8.713114527E0,1.639174372E-1,1.122521535E-1,-3.195790946E-1
8.723066402E0,-1.158873677E0,-1.091895252E-1,-2.982738316E-1
8.733032496E0,-2.760364413E-1,3.342264518E-2,-2.695116997E-1
8.742974007E0,5.643234253E-1,2.454101145E-1,-1.640505940E-1
8.752937600E0,-6.231792569E-1,9.840372950E-2,-1.725727171E-1
8.762903798E0,-6.524739787E-3,2.070606202E-1,-1.640505940E-1
8.772867652E0,8.720514774E-1,3.348922431E-1,-9.054741263E-2
8.782844944E0,-1.503353268E-1,7.603318989E-2,-8.309056610E-2
8.792810205E0,6.484792382E-2,3.129211813E-2,-0.000000000E0
8.802793434E0,1.224653721E0,2.699111700E-1,1.810948178E-2
8.812760465E0,2.074600905E-1,9.946899116E-2,-7.243792713E-2
8.822724996E0,9.321057005E-4,1.744369231E-2,-1.363537461E-1
8.832691767E0,2.958769798E-1,9.307741374E-2,-1.597895473E-1
8.842649059E0,-5.368928909E-1,5.725792143E-3,-1.384842694E-1
8.852614892E0,-1.780321896E-1,8.349003643E-2,-7.882951200E-2
8.862610361E0,1.596563905E-1,1.175784767E-1,3.621896356E-2
8.872579163E0,-2.676474862E-2,7.070687413E-2,3.941475600E-2
8.882535621E0,6.591318846E-1,1.846900880E-1,4.261054564E-3
8.892503121E0,1.058472633E0,2.560627460E-1,-1.917474531E-2
8.902467027E0,7.261103392E-1,1.644500792E-1,-1.065263674E-1
8.912434215E0,5.909550190E-1,8.135951310E-2,-2.109221965E-1
8.922399007E0,5.313002318E-2,-5.912213027E-2,-3.078611791E-1
8.932365934E0,-1.104545236E0,-2.998717129E-1,-3.780354261E-1
8.942322809E0,1.351553202E-1,-1.720400751E-1,-3.609912097E-1
8.952288694E0,5.185170770E-1,-9.108003974E-2,-4.440817833E-1
8.962262652E0,-5.635244846E-1,-1.731053442E-1,-4.621912539E-1
8.972229371E0,-9.522125125E-1,-1.656484902E-1,-4.728438854E-1
8.982201611E0,-9.394294024E-1,-2.316948473E-1,-4.994754791E-1
8.992168850E0,-1.183774248E-1,-1.390169114E-1,-3.195790946E-1
9.002134059E0,3.842938542E-1,-4.966791719E-2,-1.086568907E-1
9.012101090E0,-6.050697565E-1,-2.785664499E-1,-1.097221524E-1
9.022072132E0,-5.020054802E-2,-2.402169555E-1,-4.217112362E-1
9.032039527E0,6.388918757E-1,-4.327633604E-2,-5.090628862E-1
9.041991975E0,-1.556616426E-1,-5.912213027E-2,-5.665870905E-1
9.051957861E0,6.921550632E-1,1.516669095E-1,-6.198502779E-1
9.061953642E0,2.990727723E-1,4.833633825E-2,-5.026713014E-1
9.071922548E0,7.656582445E-2,-1.984053478E-2,-3.332943618E-1
9.081871715E0,9.849693775E-1,1.516669095E-1,-3.620564938E-1
9.091838590E0,4.886896908E-1,7.070687413E-2,-2.556632757E-1
9.101809007E0,-1.982721984E-1,-1.454084814E-1,-1.363537461E-1
9.111776246E0,-4.394212738E-3,-1.454084814E-1,-2.237053588E-2
9.121748225E0,-2.557964325E-1,-1.113200486E-1,2.130527282E-3
9.131715934E0,-5.528718233E-1,-1.134505793E-1,-6.817687303E-2
9.141680725E0,3.821633384E-2,-4.926844500E-3,-4.048001766E-2
9.151648121E0,1.521995366E-1,1.637842879E-2,2.663159184E-2
9.161610673E0,9.321057005E-4,-3.049317189E-2,1.065263618E-2
9.171577548E0,6.761760712E-1,9.946899116E-2,-5.326318089E-3
9.181551663E0,4.183822870E-1,4.833633825E-2,4.793686420E-2
9.191519319E0,3.384875357E-1,4.660528619E-3,5.539371073E-2
9.201487027E0,4.588623047E-1,-4.926844500E-3,9.374319762E-2
9.211454684E0,1.085237339E-1,-6.657897681E-2,1.416800618E-1
9.221417913E0,-8.002793044E-2,-7.829687744E-2,1.661811322E-1
9.231385100E0,-3.442133069E-1,-9.960214794E-2,2.235722095E-1
9.241353902E0,-5.784381628E-1,-1.358211190E-1,2.491385341E-1
9.251321246E0,4.993423447E-2,-3.049317189E-2,2.853575051E-1
9.261283538E0,-2.760364413E-1,-7.616634667E-2,2.928143442E-1
9.271250361E0,-8.852340579E-1,-1.794969290E-1,2.045306265E-1
9.281230777E0,-4.538023174E-1,-9.108003974E-2,1.821600795E-1
9.291198955E0,-1.748363972E-1,-1.664474420E-2,2.800311744E-1
9.301160777E0,-3.856254518E-1,-5.286370963E-2,3.439469934E-1
9.311128277E0,-2.302301079E-1,-3.475422785E-2,3.322291076E-1
9.321092236E0,-2.110553533E-1,-2.796316985E-3,2.800311744E-1
9.331059423E0,-1.930790395E-2,5.898897350E-2,2.235722095E-1
9.341030777E0,3.928159550E-2,6.538055837E-2,1.203747913E-1
9.350998382E0,-1.876195520E-1,2.530001104E-3,-2.663159184E-2
9.360956559E0,-4.783033729E-1,-6.338318437E-2,-1.331579536E-1
9.370923121E0,-4.394212738E-3,5.725792143E-3,-1.672463864E-1
9.380895100E0,-1.173121557E-1,-6.338318437E-2,-1.992042959E-1
9.390862288E0,-3.431480527E-1,-1.315600574E-1,-2.780338228E-1
9.400832496E0,8.721846342E-2,-3.262370080E-2,-3.940143883E-1
9.410799944E0,3.502054140E-2,-2.410159074E-2,-4.270375669E-1
9.420766507E0,-2.323606312E-1,-9.747162461E-2,-4.536691606E-1
9.430733850E0,-1.045289934E-1,-1.358211190E-1,-4.803007543E-1
9.440698382E0,-5.459476262E-3,-1.390169114E-1,-4.952144325E-1
9.450665413E0,2.809632719E-1,-6.870950758E-2,-4.888228476E-1
9.460637340E0,3.736412227E-1,-3.368896246E-2,-4.696480930E-1
9.470604840E0,3.917506933E-1,6.791055668E-3,-4.781702161E-1
9.480565986E0,3.885549009E-1,2.703106403E-2,-4.696480930E-1
9.490532861E0,3.118559420E-1,-6.657897611E-4,-4.664523304E-1
9.500503902E0,3.789675534E-1,5.725792143E-3,-3.972101808E-1
9.510471194E0,4.748412669E-1,2.703106403E-2,-2.950780392E-1
9.520435673E0,3.310306668E-1,2.490053698E-2,-2.386190593E-1
9.530402652E0,3.906854391E-1,5.579318479E-2,-2.162485123E-1
9.540368434E0,3.395527899E-1,5.685844645E-2,-2.077264041E-1
9.550335309E0,2.692453861E-1,5.472791940E-2,-2.098569423E-1
9.560295413E0,1.596563905E-1,2.490053698E-2,-1.949432492E-1
9.570261611E0,-2.920154035E-1,-6.231792271E-2,-1.597895473E-1
9.580246038E0,-3.962780833E-1,-1.123853177E-1,-1.427453309E-1
9.590214007E0,-2.270343155E-1,-1.400821656E-1,-1.480716467E-1
9.600171455E0,-2.579269707E-1,-1.752358675E-1,-1.597895473E-1
9.610138382E0,-2.728406489E-1,-1.837579757E-1,-1.725727171E-1
9.620107913E0,-5.613939166E-1,-2.775011659E-1,-1.374190152E-1
9.630075100E0,1.703090221E-1,-9.960214794E-2,-7.563371956E-2
9.640050882E0,6.133255363E-1,5.259739235E-2,-1.129179448E-1
9.650018902E0,-1.504684892E-2,-5.912213027E-2,-1.427453309E-1
9.659990309E0,-1.386174262E-1,-9.640636295E-2,-1.235705838E-1
9.669958642E0,9.454214945E-3,-8.575372398E-2,-5.326318368E-2
9.679916507E0,-2.078595608E-1,-1.496695429E-1,-2.130527282E-3
9.689883798E0,-1.237037405E-1,-1.688442826E-1,4.261054471E-2
9.699854944E0,1.371526904E-2,-1.347558498E-1,7.563371956E-2
9.709822652E0,-1.098553166E-1,-1.017326787E-1,6.604634225E-2
9.719784944E0,-8.215846121E-2,-2.303632535E-2,1.917474531E-2
9.729752080E0,-9.920267761E-2,4.194475710E-2,-2.024000883E-2
9.739722184E0,-3.346259296E-1,1.744369231E-2,-1.278316416E-2
9.749689580E0,-2.802974880E-1,1.637842879E-2,-4.261054564E-3
9.759644267E0,-2.280995846E-1,1.850895584E-2,-3.941475600E-2
9.769610361E0,-2.994722426E-1,-1.451421715E-2,-8.841688186E-2
9.779603486E0,-5.978792161E-2,-4.926844500E-3,-1.406148076E-1
9.789572288E0,6.271740049E-2,-1.131842658E-2,-2.460758984E-1
9.799539736E0,-4.593949392E-2,-4.540686309E-2,-4.014712274E-1
9.809508434E0,1.265000552E-2,-8.149266988E-2,-5.101281404E-1
9.819479267E0,8.388951421E-3,-1.368863732E-1,-5.836313367E-1
9.829448121E0,-2.676474862E-2,-2.061285079E-1,-6.336987019E-1
9.839411246E0,3.395527974E-2,-2.572611570E-1,-6.773745418E-1
9.849379527E0,-2.356895804E-2,-3.030675054E-1,-7.199850678E-1
9.859344163E0,1.691105962E-2,-3.158506751E-1,-7.476819158E-1
9.869312080E0,8.828372508E-2,-2.977411747E-1,-7.913577557E-1
9.879280517E0,1.371526904E-2,-3.030675054E-1,-8.126630187E-1
9.889248434E0,2.330264263E-2,-3.105243444E-1,-7.572692633E-1
9.899216715E0,9.574057162E-2,-2.838927507E-1,-6.454166174E-1
9.909184684E0,4.460791498E-2,-2.551306486E-1,-5.165197253E-1
9.919151142E0,8.189214021E-2,-1.933453530E-1,-3.791007102E-1
9.929118955E0,9.574057162E-2,-1.379516423E-1,-2.386190593E-1
9.939074996E0,-1.824264042E-2,-1.113200486E-1,-1.065263674E-1
9.949041559E0,-5.552686751E-2,-8.681898564E-2,1.171789970E-2
9.958993694E0,-3.741738573E-2,-5.486107618E-2,1.054610983E-1
9.968958798E0,-7.896266878E-2,-3.688475490E-2,1.704421788E-1
9.978936767E0,-7.590003312E-3,-3.861580743E-3,2.320943177E-1
9.988903173E0,1.797632314E-2,8.921583183E-3,2.970753908E-1
9.998872913E0,3.608580679E-2,2.530001104E-3,3.300985694E-1
1.000883968E1,3.075948730E-2,-1.344895363E-2,3.237069845E-1
1.001881406E1,1.478053257E-2,-2.516685426E-2,2.917490900E-1
1.002878156E1,4.247738793E-2,-3.262370080E-2,2.395511568E-1
1.003874229E1,3.182475269E-2,-4.434159771E-2,1.810948253E-1
1.004870911E1,3.182475269E-2,-5.179844424E-2,1.502021700E-1
1.005866406E1,9.147951752E-2,-5.592634156E-2,1.384842694E-1
1.006862963E1,6.058686972E-2,-6.551371515E-2,1.342232227E-1
1.007861765E1,6.058686972E-2,-7.084003091E-2,1.310274303E-1
1.008858552E1,8.828372508E-2,-8.255793154E-2,1.480716467E-1
1.009854864E1,6.484792382E-2,-1.049284711E-1,1.800295562E-1
1.010851599E1,5.952160433E-2,-1.081242561E-1,2.214416862E-1
1.011848151E1,8.402267098E-2,-9.427583218E-2,2.800311744E-1
1.012844869E1,7.337003201E-2,-9.108003974E-2,3.503385782E-1
1.013842442E1,6.804371625E-2,-8.255793154E-2,4.206459820E-1
1.014839244E1,9.787109494E-2,-4.647212476E-2,4.749744236E-1
1.015833812E1,8.721846342E-2,-2.090579830E-2,5.303681493E-1
1.016830390E1,7.337003201E-2,-2.197106183E-2,6.006755233E-1
1.017827979E1,9.574057162E-2,-1.344895363E-2,6.475471258E-1
1.018824656E1,5.845634267E-2,1.464737463E-3,6.486123800E-1
1.019822494E1,5.099949613E-2,3.129211813E-2,6.219807863E-1
1.020819286E1,3.715106845E-2,3.555317223E-2,6.017407775E-1
1.021816182E1,-4.274370521E-2,2.170474641E-2,5.889576077E-1
1.022812984E1,-8.655266836E-3,3.448791057E-2,5.506081581E-1
1.023809151E1,5.193160381E-3,4.833633825E-2,4.877575934E-1
1.024805885E1,-1.504684892E-2,5.792371184E-2,3.727091253E-1
1.025801739E1,4.141212255E-2,6.538055837E-2,2.427469492E-1
1.026798385E1,6.697845459E-2,5.579318479E-2,1.406148076E-1
1.027796119E1,7.337003201E-2,4.407528415E-2,1.704421826E-2
1.028792875E1,8.934898674E-2,3.235738352E-2,-1.225053221E-1
1.029789448E1,5.099949613E-2,3.994738800E-4,-2.354232669E-1
1.030786182E1,5.739107728E-2,-9.187898599E-3,-3.354249001E-1
1.031783411E1,4.993423447E-2,-8.122635074E-3,-4.249070287E-1
1.032780198E1,5.193160381E-3,-3.049317189E-2,-4.749744236E-1
1.033775974E1,8.388951421E-3,-4.221107066E-2,-4.941491783E-1
1.034772656E1,1.371526904E-2,-3.049317189E-2,-5.058670640E-1
1.035769296E1,-2.263685223E-3,-2.410159074E-2,-4.952144325E-1
1.036765974E1,-4.394212738E-3,-1.664474420E-2,-4.568649530E-1
1.037762630E1,6.258423906E-3,3.595264861E-3,-4.131891429E-1
1.038759307E1,5.193160381E-3,2.809632942E-2,-3.631217480E-1
1.039756770E1,5.193160381E-3,4.727107286E-2,-2.918822467E-1
1.040753520E1,4.127896391E-3,6.325002760E-2,-2.098569423E-1
1.041749708E1,-1.185105834E-2,7.922898233E-2,-1.310274303E-1
1.042746401E1,-8.655266836E-3,1.047953144E-1,-5.645897239E-2
1.043743640E1,-3.422159329E-2,1.261005849E-1,6.391582079E-3
1.044740385E1,-2.889527567E-2,1.527321786E-1,6.391581893E-2
1.045737187E1,-2.037316747E-2,1.782985032E-1,1.075916290E-1
1.046733937E1,-3.422159329E-2,1.985385120E-1,1.491369158E-1
1.047731088E1,-2.356895804E-2,2.198437899E-1,1.906821877E-1
1.048727880E1,-8.655266836E-3,2.400837988E-1,2.288985252E-1
1.049723869E1,-2.783001214E-2,2.496711612E-1,2.502037883E-1
1.050720583E1,-1.930790395E-2,2.635195851E-1,2.683132887E-1
1.051718494E1,-6.524739787E-3,2.645848691E-1,2.747048736E-1
1.052715323E1,-2.996053919E-2,2.507364154E-1,2.533995807E-1
1.053710927E1,-2.996053919E-2,2.432795912E-1,2.257027328E-1
1.054707630E1,4.127896391E-3,2.241048366E-1,2.013348341E-1
1.055704093E1,-2.783001214E-2,1.868206114E-1,1.395495385E-1
1.056700776E1,-5.126581341E-2,1.687111259E-1,8.735162020E-2
1.057697885E1,1.051947847E-2,1.623195410E-1,4.261054471E-2
1.058694609E1,-1.930790395E-2,1.399490088E-1,3.195791040E-3
1.059691510E1,-6.524739787E-3,1.271658540E-1,-3.621896356E-2
1.060688250E1,1.158474199E-2,1.250353158E-1,-5.645897239E-2
1.061684906E1,-2.250369452E-2,1.197090000E-1,-7.882951200E-2
1.062681635E1,-2.569948509E-2,1.133174226E-1,-1.033305749E-1
1.063679416E1,-5.459476262E-3,1.111868918E-1,-1.139832065E-1
1.064676250E1,-2.250369452E-2,8.455529809E-2,-9.480846673E-2
1.065669948E1,-6.524739787E-3,7.390266657E-2,-9.374319762E-2
1.066666463E1,-2.463422157E-2,6.644582003E-2,-1.054610983E-1
1.067665448E1,-2.783001214E-2,6.325002760E-2,-8.202529699E-2
1.068662213E1,-1.198421582E-3,6.325002760E-2,-6.604634225E-2
1.069659369E1,-1.824264042E-2,5.259739235E-2,-5.006739125E-2
1.070656172E1,-1.611211337E-2,5.472791940E-2,-2.237053588E-2
1.071652119E1,-1.331579551E-4,4.833633825E-2,5.326318089E-3
1.072648838E1,-2.569948509E-2,3.661843762E-2,2.876211889E-2
1.073645822E1,-7.590003312E-3,3.874896467E-2,3.728422895E-2
1.074642562E1,5.193160381E-3,3.661843762E-2,5.113265663E-2
1.075637312E1,-6.524739787E-3,2.490053698E-2,5.539371073E-2
1.076633849E1,-1.398158539E-2,1.637842879E-2,5.645897239E-2
1.077632396E1,-1.331579551E-4,1.957421936E-2,5.858949944E-2
1.078629135E1,-6.524739787E-3,1.850895584E-2,5.965476483E-2
1.079625708E1,-1.078579482E-2,1.850895584E-2,6.072002649E-2
1.080622432E1,-2.263685223E-3,2.383527346E-2,6.498108059E-2
1.081619453E1,-9.720530361E-3,3.022685647E-2,5.752423778E-2
1.082616203E1,-7.590003312E-3,3.022685647E-2,6.604634225E-2
1.083613948E1,-2.263685223E-3,3.022685647E-2,7.350318879E-2
1.084610802E1,-8.655266836E-3,3.129211813E-2,6.178529188E-2
1.085607307E1,-5.459476262E-3,2.916159295E-2,5.219791830E-2
1.086604125E1,-1.331579551E-4,2.383527346E-2,4.154528305E-2
1.087599994E1,-1.078579482E-2,1.318263728E-2,2.876211889E-2
1.088596713E1,-1.198421582E-3,5.725792143E-3,2.343579940E-2
1.089591270E1,1.997369342E-3,2.530001104E-3,1.171789970E-2
1.090587765E1,9.321057005E-4,-2.796316985E-3,-1.065263641E-3
1.091584375E1,4.127896391E-3,-1.131842658E-2,-2.130527282E-3
1.092580885E1,7.323687430E-3,-1.771000773E-2,-5.326318089E-3
1.093579838E1,4.127896391E-3,-2.410159074E-2,-1.065263641E-3
1.094576593E1,1.478053257E-2,-2.942790836E-2,3.195791040E-3
1.095574432E1,5.193160381E-3,-3.688475490E-2,9.587372653E-3
1.096571291E1,5.193160381E-3,-4.008054361E-2,1.171789970E-2
1.097566531E1,6.258423906E-3,-3.901528195E-2,1.491369121E-2
1.098563229E1,7.323687430E-3,-3.901528195E-2,2.130527236E-2
1.099563234E1,6.258423906E-3,-4.114580899E-2,2.876211889E-2
1.100560265E1,-1.198421582E-3,-4.327633604E-2,3.515370190E-2
1.101556151E1,6.258423906E-3,-4.008054361E-2,3.621896356E-2
1.102553067E1,9.321057005E-4,-4.008054361E-2,3.621896356E-2
1.103546677E1,4.354264960E-2,-2.942790836E-2,1.171789970E-2
1.104543260E1,9.147951752E-2,-1.238369010E-2,1.278316416E-2
1.105542932E1,-1.034637317E-1,-4.647212476E-2,4.687159881E-2
1.106539823E1,5.845634267E-2,-2.836264484E-2,1.384842768E-2
1.107535838E1,3.608580679E-2,-2.623211779E-2,3.408843651E-2
1.108532640E1,-3.315633163E-2,-4.434159771E-2,2.343579940E-2
1.109528739E1,1.158474199E-2,-3.795001656E-2,1.597895473E-2
1.110525468E1,5.526055023E-2,-2.623211779E-2,9.587372653E-3
1.111522234E1,-4.700475931E-2,-4.753739014E-2,-1.065263641E-3
1.112518968E1,-1.331579551E-4,-4.647212476E-2,9.587372653E-3
1.113514172E1,-7.590003312E-3,-4.008054361E-2,8.522109129E-3
1.114510750E1,-9.720530361E-3,-3.901528195E-2,1.491369121E-2
1.115508041E1,3.182475269E-2,-2.729738131E-2,2.769685537E-2
1.116504687E1,2.436790615E-2,-2.729738131E-2,2.982738242E-2
1.117500838E1,1.797632314E-2,-2.942790836E-2,3.089264594E-2
1.118497437E1,2.862896025E-2,-2.942790836E-2,3.195790946E-2
1.119495526E1,-1.331579551E-4,-3.688475490E-2,3.515370190E-2
1.120492271E1,-4.394212738E-3,-3.688475490E-2,3.834949061E-2
1.121487526E1,5.193160381E-3,-2.942790836E-2,3.834949061E-2
1.122484125E1,-3.328948980E-3,-2.729738131E-2,4.261054471E-2
1.123480125E1,1.997369342E-3,-1.877527125E-2,4.793686420E-2
1.124476656E1,7.323687430E-3,-1.344895363E-2,5.219791830E-2
1.125475130E1,5.193160381E-3,-1.131842658E-2,5.645897239E-2
1.126471859E1,-1.198421582E-3,-1.025316212E-2,5.965476483E-2
1.127469224E1,6.258423906E-3,-7.057371549E-3,5.645897239E-2
1.128466015E1,8.388951421E-3,-5.992108025E-3,5.645897239E-2
1.129461338E1,1.997369342E-3,-1.731053460E-3,5.326318368E-2
1.130457984E1,-8.655266836E-3,-3.861580743E-3,4.900212586E-2
1.131456328E1,-5.459476262E-3,-6.657897611E-4,4.580633715E-2
1.132453146E1,-5.459476262E-3,1.464737463E-3,4.474107176E-2
1.133449963E1,-5.459476262E-3,1.464737463E-3,4.580633715E-2
1.134446781E1,-5.459476262E-3,2.530001104E-3,4.580633715E-2
1.135441885E1,-9.720530361E-3,3.994738800E-4,4.367581010E-2
1.136438531E1,-8.655266836E-3,3.994738800E-4,4.154528305E-2
1.137436817E1,-9.720530361E-3,-2.796316985E-3,3.728422895E-2
1.138433625E1,-6.524739787E-3,-3.861580743E-3,2.982738242E-2
1.139432385E1,-5.459476262E-3,-5.992108025E-3,2.237053588E-2
1.140429390E1,-5.459476262E-3,-9.187898599E-3,1.597895473E-2
1.141425406E1,-3.328948980E-3,-9.187898599E-3,1.491369121E-2
1.142422312E1,1.997369342E-3,-8.122635074E-3,1.065263618E-2
1.143418922E1,3.062632866E-3,-7.057371549E-3,9.587372653E-3
1.144415791E1,9.321057005E-4,-7.057371549E-3,8.522109129E-3
1.145408713E1,-1.198421582E-3,-5.992108025E-3,9.587372653E-3
1.146405182E1,-2.263685223E-3,-5.992108025E-3,6.391582079E-3
1.147404953E1,3.062632866E-3,-3.861580743E-3,4.261054564E-3
1.148401760E1,3.062632866E-3,-1.731053460E-3,2.130527282E-3
1.149397458E1,-1.331579551E-4,-2.796316985E-3,1.065263641E-3
1.150394151E1,-1.198421582E-3,-2.796316985E-3,-0.000000000E0
1.151392015E1,-1.331579551E-4,-1.731053460E-3,-1.065263641E-3
1.152388828E1,3.062632866E-3,-6.657897611E-4,-2.130527282E-3
1.153384385E1,9.454214945E-3,-6.657897611E-4,-3.195791040E-3
1.154381067E1,4.127896391E-3,-6.657897611E-4,-3.195791040E-3
1.155376828E1,4.127896391E-3,-6.657897611E-4,-4.261054564E-3
1.156373416E1,8.388951421E-3,2.530001104E-3,-4.261054564E-3
1.157373484E1,9.454214945E-3,1.464737463E-3,-3.195791040E-3
1.158370427E1,9.321057005E-4,-1.731053460E-3,-2.130527282E-3
1.159366088E1,-3.328948980E-3,-1.731053460E-3,-2.130527282E-3
1.160362896E1,-1.717737690E-2,1.464737463E-3,-3.195791040E-3
1.161364130E1,-9.494162351E-2,-1.238369010E-2,-6.391582079E-3
1.162361390E1,-1.398158539E-2,-5.992108025E-3,-1.491369121E-2
1.163359218E1,4.567318037E-2,7.856319658E-3,-8.522109129E-3
1.164356531E1,4.567318037E-2,5.725792143E-3,-1.278316416E-2
1.165351682E1,3.289001435E-2,4.660528619E-3,-1.065263618E-2
1.166348781E1,2.223737910E-2,3.595264861E-3,-1.384842768E-2
1.167337515E1,-2.889527567E-2,-6.657897611E-4,-1.278316416E-2
1.168333765E1,-3.741738573E-2,-7.057371549E-3,-1.065263618E-2
1.169331833E1,-3.422159329E-2,-7.057371549E-3,-1.384842768E-2
1.170328271E1,-2.569948509E-2,-7.057371549E-3,-9.587372653E-3
1.173913282E1,-3.328948980E-3,1.211737376E-2,-2.024000883E-2
1.174913282E1,-3.328948980E-3,1.211737376E-2,-2.024000883E-2
1.175906402E1,-1.331579551E-4,1.211737376E-2,-2.024000883E-2
1.176903136E1,9.321057005E-4,1.318263728E-2,-1.704421826E-2
1.177899881E1,-1.198421582E-3,1.211737376E-2,-1.384842768E-2
1.178893308E1,4.127896391E-3,1.318263728E-2,-1.171789970E-2
1.179889813E1,9.321057005E-4,1.211737376E-2,-1.065263618E-2
1.180885975E1,4.127896391E-3,1.105211023E-2,-1.171789970E-2
1.181882444E1,3.062632866E-3,1.105211023E-2,-1.171789970E-2
1.182882220E1,9.321057005E-4,7.856319658E-3,-1.384842768E-2
1.183879022E1,-1.331579551E-4,6.791055668E-3,-1.491369121E-2
1.184873751E1,9.321057005E-4,6.791055668E-3,-1.491369121E-2
1.185870345E1,-1.198421582E-3,7.856319658E-3,-1.704421826E-2
1.186865746E1,-1.331579551E-4,1.105211023E-2,-1.810948178E-2
1.187862214E1,-2.263685223E-3,1.105211023E-2,-1.704421826E-2
1.188862923E1,9.321057005E-4,1.211737376E-2,-1.384842768E-2
1.189859824E1,1.997369342E-3,8.921583183E-3,-1.065263618E-2
1.190856527E1,-1.198421582E-3,1.105211023E-2,-8.522109129E-3
1.191853402E1,-1.331579551E-4,1.105211023E-2,-8.522109129E-3
1.192849673E1,1.997369342E-3,1.637842879E-2,-8.522109129E-3
1.193846485E1,9.321057005E-4,1.850895584E-2,-1.171789970E-2
1.194841313E1,1.997369342E-3,1.850895584E-2,-1.171789970E-2
1.195837928E1,1.997369342E-3,1.744369231E-2,-9.587372653E-3
1.196838017E1,1.997369342E-3,1.424790081E-2,-1.171789970E-2
1.197834985E1,-1.331579551E-4,1.318263728E-2,-1.491369121E-2
1.198831121E1,9.321057005E-4,1.211737376E-2,-1.810948178E-2
1.199828001E1,-1.331579551E-4,1.318263728E-2,-2.237053588E-2
1.200824438E1,-2.263685223E-3,1.211737376E-2,-2.237053588E-2
1.201821272E1,1.997369342E-3,1.424790081E-2,-2.237053588E-2
1.202818209E1,1.997369342E-3,1.105211023E-2,-1.917474531E-2
1.203815053E1,9.321057005E-4,8.921583183E-3,-1.384842768E-2
1.204810798E1,-1.198421582E-3,9.986846708E-3,-1.278316416E-2
1.205807532E1,-3.328948980E-3,9.986846708E-3,-1.065263618E-2
1.206802230E1,-7.590003312E-3,1.211737376E-2,-7.456845604E-3
1.207798756E1,-8.655266836E-3,1.105211023E-2,-5.326318089E-3
1.208795214E1,-6.524739787E-3,8.921583183E-3,-1.065263641E-3
1.209791735E1,-9.720530361E-3,6.791055668E-3,2.130527282E-3
1.210789912E1,-6.085318699E-2,-5.992108025E-3,1.065263641E-3
1.211786600E1,-6.298371404E-2,-4.926844500E-3,6.391582079E-3
1.212783657E1,1.893506050E-1,2.490053698E-2,-8.522109129E-3
1.213780381E1,9.321057005E-4,-2.796316985E-3,-6.391582079E-3
1.214776100E1,-3.741738573E-2,4.660528619E-3,1.065263641E-3
1.215772720E1,6.697845459E-2,1.318263728E-2,-2.130527282E-3
1.216769688E1,-1.717737690E-2,-3.861580743E-3,9.587372653E-3
1.217766345E1,-1.198421582E-3,1.464737463E-3,5.326318089E-3
1.218765907E1,3.715106845E-2,1.424790081E-2,8.522109129E-3
1.219762860E1,-4.807002097E-2,2.530001104E-3,1.278316416E-2
1.220759480E1,1.584579609E-2,1.211737376E-2,8.522109129E-3
1.221756397E1,2.010685205E-2,1.424790081E-2,9.587372653E-3
1.222752829E1,-1.398158539E-2,1.105211023E-2,1.704421826E-2
1.223749694E1,-2.263685223E-3,1.424790081E-2,1.171789970E-2
1.224745584E1,1.691105962E-2,1.957421936E-2,1.171789970E-2
1.225742350E1,-6.524739787E-3,1.531316526E-2,1.171789970E-2
1.226738975E1,2.117211558E-2,2.490053698E-2,1.065263618E-2
1.227735725E1,-1.930790395E-2,2.277000993E-2,1.597895473E-2
1.228732079E1,-2.463422157E-2,1.744369231E-2,1.597895473E-2
1.229728793E1,2.117211558E-2,2.490053698E-2,1.171789970E-2
1.230726204E1,-1.331579551E-4,2.596580051E-2,1.384842768E-2
1.231722985E1,-1.291632187E-2,3.235738352E-2,1.065263618E-2
1.232717631E1,2.223737910E-2,4.301001877E-2,9.587372653E-3
1.233714194E1,-7.590003312E-3,3.342264518E-2,1.384842768E-2
1.234712902E1,4.127896391E-3,2.277000993E-2,1.384842768E-2
1.235709683E1,6.258423906E-3,1.531316526E-2,1.384842768E-2
1.236703256E1,-1.504684892E-2,8.921583183E-3,-2.130527282E-3
1.237699709E1,1.051947847E-2,1.318263728E-2,-2.876211889E-2
1.238698345E1,1.797632314E-2,2.383527346E-2,-4.367581010E-2
1.239695016E1,-7.590003312E-3,2.596580051E-2,-4.793686420E-2
1.240692787E1,1.265000552E-2,2.490053698E-2,-4.261054471E-2
1.241689568E1,7.323687430E-3,1.424790081E-2,-3.089264594E-2
1.242685954E1,-8.655266836E-3,1.464737463E-3,-2.769685537E-2
1.243682699E1,-1.198421582E-3,3.994738800E-4,-3.941475600E-2
1.244678032E1,-3.328948980E-3,3.595264861E-3,-6.285055727E-2
1.245674631E1,9.321057005E-4,1.105211023E-2,-8.522108942E-2
1.246673027E1,9.454214945E-3,1.637842879E-2,-9.800425172E-2
1.247669808E1,-7.590003312E-3,1.105211023E-2,-9.480846673E-2
1.248664183E1,-9.720530361E-3,-4.926844500E-3,-8.948214352E-2
1.249660720E1,-2.263685223E-3,-1.131842658E-2,-7.989477366E-2
1.250660105E1,-1.504684892E-2,-1.238369010E-2,-8.309056610E-2
1.251656928E1,-2.263685223E-3,-1.025316212E-2,-8.948214352E-2
1.252656204E1,-3.328948980E-3,-7.057371549E-3,-8.735162020E-2
1.253653277E1,-1.078579482E-2,-4.926844500E-3,-8.309056610E-2
1.254648954E1,-3.328948980E-3,-9.187898599E-3,-7.456845790E-2
1.255645881E1,-1.078579482E-2,-1.451421715E-2,-6.604634225E-2
1.256640985E1,-1.078579482E-2,-1.877527125E-2,-6.285055727E-2
1.257637730E1,-1.198421582E-3,-2.623211779E-2,-7.456845790E-2
1.258634501E1,-7.590003312E-3,-2.942790836E-2,-7.882951200E-2
1.259631246E1,-1.291632187E-2,-3.155843541E-2,-8.202529699E-2
1.260625553E1,4.127896391E-3,-2.623211779E-2,-1.139832065E-1
1.261622053E1,3.502054140E-2,-1.664474420E-2,-1.768337637E-1
1.262623006E1,2.117211558E-2,-1.771000773E-2,-2.109221965E-1
1.263619954E1,1.371526904E-2,-3.262370080E-2,-2.428801060E-1
1.264613490E1,1.691105962E-2,-5.073318258E-2,-2.599243224E-1
1.265610095E1,-1.824264042E-2,-7.829687744E-2,-2.727074921E-1
1.266607871E1,-4.394212738E-3,-8.681898564E-2,-2.727074921E-1
1.267604589E1,-5.459476262E-3,-8.788424730E-2,-2.812296152E-1
1.268602204E1,-3.328948980E-3,-7.936213911E-2,-3.078611791E-1
1.269599017E1,1.997369342E-3,-6.657897681E-2,-3.332943618E-1
1.270593563E1,-1.198421582E-3,-7.190529257E-2,-3.396859467E-1
1.271590142E1,1.997369342E-3,-7.829687744E-2,-3.311638236E-1
1.272585933E1,9.321057005E-4,-7.936213911E-2,-3.185138404E-1
1.273582433E1,-1.398158539E-2,-7.829687744E-2,-3.185138404E-1
1.274579595E1,-1.331579551E-4,-7.723161578E-2,-3.067959249E-1
1.275576162E1,-1.198421582E-3,-7.723161578E-2,-2.780338228E-1
1.276575949E1,-1.185105834E-2,-7.403582335E-2,-2.407495826E-1
1.277572839E1,9.321057005E-4,-7.084003091E-2,-2.066611499E-1
1.278566470E1,-1.331579551E-4,-6.657897681E-2,-1.832253486E-1
1.279563027E1,-6.524739787E-3,-6.231792271E-2,-1.608548164E-1
1.280560652E1,-5.459476262E-3,-6.231792271E-2,-1.384842694E-1
1.281557319E1,9.321057005E-4,-5.912213027E-2,-1.033305749E-1
1.282556584E1,-9.720530361E-3,-6.231792271E-2,-6.498108059E-2
1.283553517E1,-1.291632187E-2,-5.805686861E-2,-3.089264594E-2
1.284550657E1,-1.078579482E-2,-5.179844424E-2,-7.456845604E-3
1.285547605E1,-8.655266836E-3,-4.540686309E-2,1.597895473E-2
1.286545522E1,-1.078579482E-2,-4.434159771E-2,3.195790946E-2
1.287542568E1,-9.720530361E-3,-4.327633604E-2,4.261054471E-2
1.288543574E1,-2.037316747E-2,-4.327633604E-2,4.474107176E-2
1.289541022E1,-7.590003312E-3,-3.901528195E-2,4.261054471E-2
1.290534079E1,-2.356895804E-2,-4.327633604E-2,4.474107176E-2
1.291531084E1,-3.328948980E-3,-2.942790836E-2,3.408843651E-2
1.292521392E1,1.797632314E-2,3.994738800E-4,-1.810948178E-2
1.293517720E1,5.193160381E-3,2.703106403E-2,-6.817687303E-2
1.294516168E1,-2.676474862E-2,4.660528619E-3,-8.522108942E-2
1.295512709E1,-9.720530361E-3,-4.221107066E-2,-8.841688186E-2
1.296509600E1,3.075948730E-2,-6.764423847E-2,-9.161267430E-2
1.297506178E1,-9.720530361E-3,-9.108003974E-2,-1.139832065E-1
1.298502668E1,-1.611211337E-2,-8.788424730E-2,-1.448758543E-1
1.299499230E1,-3.328948980E-3,-5.379581451E-2,-2.002695650E-1
1.300496563E1,1.691105962E-2,-4.860265180E-2,-2.364885211E-1
1.301493204E1,-2.676474862E-2,-6.977476925E-2,-2.343579978E-1
1.302487892E1,3.182475269E-2,-7.829687744E-2,-2.428801060E-1
1.303484334E1,-7.590003312E-3,-1.038632020E-1,-2.237053663E-1
1.304483173E1,-2.263685223E-3,-1.049284711E-1,-2.258358896E-1
1.305479855E1,3.715106845E-2,-9.534109384E-2,-2.279664129E-1
1.306474871E1,9.321057005E-4,-1.059937328E-1,-2.194443047E-1
1.307471381E1,-2.463422157E-2,-1.059937328E-1,-2.087916732E-1
1.308468355E1,3.608580679E-2,-9.001477808E-2,-2.002695650E-1
1.309464912E1,4.354264960E-2,-8.788424730E-2,-1.970737725E-1
1.310462225E1,1.691105962E-2,-9.534109384E-2,-1.896169335E-1
1.311458860E1,2.756369673E-2,-9.001477808E-2,-1.768337637E-1
1.312458464E1,2.649843320E-2,-1.049284711E-1,-1.544632316E-1
1.313455397E1,9.454214945E-3,-1.198421568E-1,-1.331579536E-1
1.314451574E1,3.395527974E-2,-1.145158410E-1,-1.150484756E-1
1.315448433E1,3.182475269E-2,-1.091895252E-1,-1.043958366E-1
1.316445173E1,9.321057005E-4,-1.145158410E-1,-8.628635854E-2
1.317442016E1,3.062632866E-3,-1.059937328E-1,-6.817687303E-2
1.318439230E1,8.388951421E-3,-1.038632020E-1,-4.793686420E-2
1.319436110E1,1.051947847E-2,-1.123853177E-1,-2.130527236E-2
1.320431980E1,5.099949613E-2,-1.177116334E-1,1.491369121E-2
1.321428756E1,5.419528857E-2,-1.123853177E-1,5.006739125E-2
1.322425959E1,6.378266215E-2,-9.534109384E-2,7.669898123E-2
1.323422777E1,4.673844203E-2,-8.894951642E-2,1.107874215E-1
1.324415985E1,5.632581562E-2,-7.084003091E-2,1.438105851E-1
1.325412433E1,2.969422378E-2,-5.486107618E-2,1.629853398E-1
1.326411944E1,3.821633384E-2,-2.623211779E-2,1.810948253E-1
1.327408709E1,8.082687855E-2,3.595264861E-3,2.013348341E-1
1.328405959E1,1.478053257E-2,1.957421936E-2,2.352901101E-1
1.329402772E1,-3.209106624E-2,5.046686530E-2,2.832269669E-1
1.330399397E1,7.323687430E-3,9.946899116E-2,3.226417303E-1
1.331396188E1,-8.655266836E-3,1.388837546E-1,3.556649089E-1
1.332392918E1,4.127896391E-3,1.644500792E-1,3.801659644E-1
1.333389699E1,7.443529367E-2,1.910816729E-1,3.705785871E-1
1.334384918E1,3.608580679E-2,1.751027107E-1,3.375554085E-1
1.335381542E1,3.608580679E-2,1.474058628E-1,2.864227593E-1
1.336378345E1,8.295740932E-2,1.175784767E-1,1.960085034E-1
1.337374985E1,-1.185105834E-2,6.111950055E-2,8.202529699E-2
1.338370240E1,5.526055023E-2,3.768370301E-2,-3.089264594E-2
1.339366740E1,1.276984811E-1,2.383527346E-2,-1.352884769E-1
1.340365751E1,3.928159550E-2,7.856319658E-3,-2.364885211E-1
1.341362501E1,1.904158667E-2,1.637842879E-2,-3.269027770E-1
1.342358642E1,-1.291632187E-2,2.063948289E-2,-3.716438413E-1
1.343355329E1,1.053279415E-1,3.661843762E-2,-3.609912097E-1
1.344349964E1,6.910897791E-2,2.277000993E-2,-3.439469934E-1
1.345346449E1,-1.185105834E-2,-2.796316985E-3,-3.492733240E-1
1.346344709E1,-4.913528636E-2,-7.057371549E-3,-3.854922652E-1
1.347341365E1,-1.375521719E-1,-2.836264484E-2,-4.419512451E-1
1.348339037E1,-1.119858399E-1,-4.221107066E-2,-5.005407333E-1
1.349335803E1,1.287637353E-1,-1.557948068E-2,-5.825660825E-1
1.350330490E1,2.351569533E-1,-1.451421715E-2,-6.709829569E-1
1.351327042E1,1.745700836E-1,-6.870950758E-2,-7.796398401E-1
1.352325970E1,-3.954791278E-2,-1.539305896E-1,-9.307740927E-1
1.353322756E1,1.584579609E-2,-2.327601016E-1,-1.078845739E0
1.354319204E1,-1.717737690E-2,-3.265033066E-1,-1.213068962E0
1.355315954E1,2.330264263E-2,-3.669833243E-1,-1.351553202E0
1.356311074E1,1.394163817E-1,-3.542001545E-1,-1.432380080E0
1.357307662E1,1.010668874E-1,-3.531349003E-1,-1.459011674E0
1.358306480E1,1.521995366E-1,-3.605917394E-1,-1.447293758E0
1.359303293E1,1.276984811E-1,-3.755054474E-1,-1.424923301E0
1.360299142E1,-8.002793044E-2,-4.298338890E-1,-1.352618456E0
1.361295855E1,1.584579609E-2,-4.170507193E-1,-1.234374285E0
1.362291042E1,-1.198421582E-3,-3.765707016E-1,-1.110803604E0
1.363287600E1,-7.896266878E-2,-3.595264852E-1,-9.978857040E-1
1.364286053E1,-2.996053919E-2,-3.254380524E-1,-9.254477620E-1
1.365282798E1,-1.716406047E-1,-3.350254297E-1,-8.488819599E-1
1.366279761E1,-9.707214683E-2,-3.094590902E-1,-7.615303397E-1
1.367276532E1,4.886896908E-2,-2.838927507E-1,-6.635261178E-1
1.368271907E1,-1.609879732E-1,-2.998717129E-1,-5.921534300E-1
1.369268537E1,1.596563905E-1,-2.785664499E-1,-5.207807422E-1
1.370265428E1,3.012032807E-1,-2.998717129E-1,-4.355596602E-1
1.371262079E1,5.099949613E-2,-3.520696461E-1,-3.844270110E-1
1.372260350E1,2.106558830E-1,-3.456780612E-1,-3.237069845E-1
1.373257168E1,2.490053773E-1,-3.414169848E-1,-2.471411675E-1
1.374252006E1,1.255679578E-1,-3.318296373E-1,-1.789642870E-1
1.375248626E1,3.406180441E-1,-2.679138184E-1,-8.628635854E-2
1.376247048E1,1.840242893E-1,-2.764359117E-1,1.278316416E-2
1.377243845E1,8.295740932E-2,-2.849580348E-1,1.182442605E-1
1.378240636E1,7.337003201E-2,-2.689790726E-1,2.193111479E-1
1.379237428E1,-6.831002980E-2,-2.487390637E-1,3.269027770E-1
1.380232365E1,-8.748477697E-2,-1.997369379E-1,4.611259997E-1
1.381228970E1,5.099949613E-2,-9.960214794E-2,6.283723712E-1
1.382227365E1,-9.068056941E-2,-3.475422785E-2,8.029424548E-1
1.383224152E1,-1.354216337E-1,1.957421936E-2,9.329046607E-1
1.384220871E1,-5.126581341E-2,6.751108170E-2,1.043691993E0
1.385217647E1,-1.822932363E-1,6.751108170E-2,1.148087859E0
1.386212365E1,-2.302301079E-1,6.431528926E-2,1.237570047E0
1.387208938E1,-1.279647946E-1,8.881635964E-2,1.296026349E0
1.388208183E1,-3.133206666E-1,7.070687413E-2,1.306679010E0
1.389205022E1,-5.020054802E-2,1.175784767E-1,1.302417994E0
1.390199980E1,-9.281109273E-2,1.101216301E-1,1.312005281E0
1.391196626E1,-3.834949136E-1,6.218476593E-2,1.325853705E0
1.392195293E1,-2.078595608E-1,7.603318989E-2,1.323723197E0
1.393192147E1,-1.717737690E-2,9.201214463E-2,1.325853705E0
1.394187897E1,-2.579269707E-1,6.857634336E-2,1.309874773E0
1.395184636E1,-2.760364413E-1,7.922898233E-2,1.272723794E0
1.396181339E1,-2.153164148E-1,7.070687413E-2,1.254614234E0
1.397178074E1,-1.492700726E-1,8.668582886E-2,1.217329979E0
1.398174157E1,-1.641837656E-1,8.881635964E-2,1.170458436E0
1.399170824E1,-3.452785909E-1,5.579318479E-2,1.173654199E0
1.400167246E1,-2.376869470E-1,7.070687413E-2,1.189633131E0
1.401163886E1,-3.328948980E-3,1.292963773E-1,1.222656369E0
1.402161824E1,-1.599227041E-1,1.623195410E-1,1.198155284E0
1.403158595E1,-3.632549047E-1,1.516669095E-1,1.119325757E0
1.404152855E1,-3.909517527E-1,1.229047924E-1,1.078845739E0
1.405149371E1,-7.044056058E-2,1.751027107E-1,1.107607841E0
1.406148579E1,-8.215846121E-2,2.464753687E-1,1.098020554E0
1.407145365E1,-3.016027808E-1,2.539322078E-1,1.029843569E0
1.408141011E1,-2.941459119E-1,2.134522051E-1,1.001081467E0
1.409137683E1,-7.683213800E-2,2.145174593E-1,9.925593734E-1
1.410133803E1,-1.824264042E-2,2.326269448E-1,9.648625255E-1
1.411130418E1,-8.535424620E-2,2.560627460E-1,9.158604145E-1
1.412127501E1,-1.460742801E-1,2.688459158E-1,8.380961418E-1
1.413124168E1,7.550056279E-2,3.285006881E-1,7.731150985E-1
1.414121933E1,-4.061317816E-2,3.530017436E-1,7.114629745E-1
1.415118709E1,-1.428784877E-1,3.604585826E-1,6.688523889E-1
1.416114162E1,-3.143859208E-1,2.880206704E-1,6.209155321E-1
1.417110803E1,1.756353378E-1,3.434143662E-1,5.751091838E-1
1.418108855E1,6.910897791E-2,3.167827725E-1,5.218459964E-1
1.419105636E1,-1.737711281E-1,2.443448454E-1,4.291680753E-1
1.420102975E1,2.447443157E-1,2.677806616E-1,3.588607013E-1
1.421099808E1,3.363569975E-1,2.880206704E-1,2.491385341E-1
1.422094230E1,6.484792382E-2,2.379532605E-1,1.992042959E-1
1.423090818E1,9.787109494E-2,1.932121962E-1,1.874863952E-1
1.424090017E1,-4.913528636E-2,1.335574239E-1,1.395495385E-1
1.425086876E1,3.289001435E-2,1.431448013E-1,1.416800618E-1
1.426083032E1,1.287637353E-1,1.878858805E-1,1.992042959E-1
1.427079818E1,7.230477035E-2,1.857553422E-1,3.013364673E-1
1.428078990E1,-3.037332892E-1,6.431528926E-2,3.769701719E-1
1.429076017E1,9.680583328E-2,1.229047924E-1,3.556649089E-1
1.430070730E1,4.524707198E-1,2.581932843E-1,3.695133328E-1
1.431067517E1,-3.516701460E-1,1.665806025E-1,3.631217480E-1
1.432063673E1,3.289001435E-2,1.974732429E-1,3.535343707E-1
1.433060397E1,6.143907905E-1,2.826943398E-1,3.535343707E-1
1.434060454E1,-2.035985142E-1,2.219743133E-1,4.398207366E-1
1.435057516E1,-5.784381628E-1,1.250353158E-1,5.229113102E-1
1.436051418E1,5.526055023E-2,2.241048366E-1,4.792354703E-1
1.437048157E1,-3.600591123E-1,2.219743133E-1,4.483428299E-1
1.438045204E1,-2.952111959E-1,2.518016994E-1,4.430165291E-1
1.439041975E1,2.074600905E-1,3.178480268E-1,3.620564938E-1
1.440037527E1,-3.346259296E-1,1.996037811E-1,2.747048736E-1
1.441034173E1,-2.760364413E-1,1.655153334E-1,1.672463864E-1
1.442031918E1,2.106558830E-1,2.603237927E-1,3.621896356E-2
1.443028673E1,-2.110553533E-1,2.059953511E-1,-7.350318879E-2
1.444025761E1,-5.978792161E-2,1.910816729E-1,-1.917474568E-1
1.445022548E1,2.628538013E-1,2.017343044E-1,-3.588607013E-1
1.446019871E1,-1.545963883E-1,1.015995219E-1,-5.048018098E-1
1.447016709E1,-5.552686751E-2,6.751108170E-2,-6.070671082E-1
1.448012209E1,9.787109494E-2,5.685844645E-2,-7.050713897E-1
1.449008912E1,-1.141163707E-1,1.424790081E-2,-7.775092721E-1
1.450004527E1,-3.954791278E-2,1.464737463E-3,-8.636624813E-1
1.451001121E1,-2.984069884E-1,-1.177116334E-1,-9.222519994E-1
1.451996522E1,-7.257108390E-2,-9.001477808E-2,-1.030908942E0
1.452992996E1,4.940160215E-1,1.464737463E-3,-1.148087859E0
1.453990839E1,-2.334259003E-1,-1.773663908E-1,-1.241831064E0
1.454987449E1,1.371526904E-2,-2.487390637E-1,-1.227982640E0
1.455984928E1,3.246390820E-1,-2.082590461E-1,-1.232243776E0
1.456981621E1,-3.133206666E-1,-2.913496196E-1,-1.164066792E0
1.457977261E1,-9.281109273E-2,-2.679138184E-1,-1.110803604E0
1.458973850E1,2.117211558E-2,-2.242379934E-1,-1.095889926E0
1.459972115E1,-3.611243665E-1,-2.806969583E-1,-1.054344654E0
1.460968876E1,1.861548275E-1,-1.837579757E-1,-9.552751780E-1
1.461965168E1,-4.274370521E-2,-2.157158852E-1,-8.360987902E-1
1.462961876E1,-3.569964767E-1,-2.636527419E-1,-7.540735006E-1
1.463957501E1,6.378266215E-2,-1.763011366E-1,-7.199850678E-1
1.464954100E1,1.213068962E-1,-1.123853177E-1,-6.901576519E-1
1.465951985E1,-1.077247858E-1,-1.432779580E-1,-6.006755233E-1
1.466948714E1,2.777675092E-1,-8.788424730E-2,-4.557996690E-1
1.467944642E1,3.502054140E-2,-8.042740822E-2,-3.089264631E-1
1.468941287E1,-2.014679909E-1,-6.870950758E-2,-1.118526831E-1
1.469938839E1,-3.741738573E-2,-8.122635074E-3,3.302317113E-2
1.470935574E1,1.553953290E-1,7.070687413E-2,1.906821877E-1
1.471932511E1,-9.920267761E-2,8.135951310E-2,3.247722387E-1
1.472929267E1,1.276984811E-1,1.420795321E-1,4.515386224E-1
1.473925339E1,3.715106845E-2,1.218395308E-1,5.996102691E-1
1.474922027E1,-5.446160212E-2,1.207742617E-1,6.848313808E-1
1.475917777E1,8.388951421E-3,1.335574239E-1,7.253113985E-1
1.476914365E1,6.697845459E-2,1.250353158E-1,7.901592851E-1
1.477912199E1,-2.568616867E-1,1.037300453E-1,7.763108611E-1
1.478908918E1,-2.600574791E-1,1.133174226E-1,7.901592851E-1
1.479904839E1,-4.207791388E-1,5.366265774E-2,7.645930052E-1
1.480901475E1,-1.183774248E-1,9.307741374E-2,7.613971829E-1
1.481897980E1,9.041424841E-2,1.612542868E-1,7.560708523E-1
1.482894600E1,-1.364869028E-1,1.090563685E-1,7.402250767E-1
1.483892694E1,-1.279647946E-1,2.916159295E-2,7.050713897E-1
1.484889464E1,1.266332120E-1,8.668582886E-2,6.326334476E-1
1.485886459E1,-1.759016514E-1,7.177213579E-2,5.612607598E-1
1.486883246E1,1.893506050E-1,2.059953511E-1,4.355596602E-1
1.487878657E1,1.340900660E-1,1.868206114E-1,3.503385782E-1
1.488875303E1,-6.724476814E-2,1.261005849E-1,2.544648647E-1
1.489872115E1,2.138516754E-1,1.580584943E-1,1.640505940E-1
1.490868782E1,2.223737836E-1,1.900164038E-1,3.515370190E-2
1.491866730E1,-3.388870060E-1,9.627319872E-2,-9.480846673E-2
1.492863522E1,4.673844203E-2,1.186437383E-1,-2.577938139E-1
1.493858798E1,2.532664239E-1,1.292963773E-1,-4.344944060E-1
1.494855438E1,-1.663142890E-1,5.579318479E-2,-5.846965909E-1
1.495853985E1,-5.459476262E-3,4.660528619E-3,-6.858966351E-1
1.496850813E1,7.323687430E-3,-9.321057051E-2,-8.126630187E-1
1.497847256E1,-7.576687634E-2,-1.443432271E-1,-9.552751780E-1
1.498844048E1,1.713742912E-1,-1.134505793E-1,-1.066062570E0
1.499839089E1,-3.848264739E-2,-1.486042738E-1,-1.164066792E0
1.500835699E1,-7.590003312E-3,-1.741705984E-1,-1.218395233E0
1.501834626E1,1.713742912E-1,-1.741705984E-1,-1.204546809E0
1.502831470E1,-2.676474862E-2,-1.912148297E-1,-1.096955180E0
1.503827709E1,-1.407479644E-1,-2.178464085E-1,-9.701888561E-1
1.504824490E1,1.117195264E-1,-2.018674612E-1,-8.700540662E-1
1.505819803E1,-1.673795432E-1,-2.274337858E-1,-8.254461884E-1
1.506816438E1,-1.087900475E-1,-2.199769467E-1,-7.700524330E-1
1.507815006E1,4.514054656E-1,-1.326253265E-1,-7.327682376E-1
1.508811834E1,2.010685205E-2,-1.976063997E-1,-6.805703044E-1
1.509808522E1,-1.098553166E-1,-2.711096108E-1,-5.442165732E-1
1.510805334E1,2.703106403E-1,-1.763011366E-1,-3.961449265E-1
1.511800110E1,-2.131858915E-1,-2.039979845E-1,-3.110569715E-1
1.512796714E1,5.142560005E-1,-3.688475490E-2,-1.970737725E-1
1.513795647E1,9.254477918E-2,-8.362319320E-2,-5.539371073E-2
1.514792485E1,-2.653838098E-1,-1.549958587E-1,4.154528305E-2
1.515789272E1,1.703090221E-1,-1.496695429E-1,1.342232227E-1
1.516786105E1,-1.641837656E-1,-1.677790284E-1,2.470080107E-1
1.517781548E1,-7.925561666E-1,-2.434127480E-1,2.374206334E-1
1.518778240E1,6.420876384E-1,3.981423005E-2,2.800311744E-1
1.519774392E1,-2.263685223E-3,-2.090579830E-2,3.503385782E-1
1.520771027E1,-7.094655633E-1,-1.635179669E-1,4.291680753E-1
1.521766542E1,2.862896025E-1,-6.125266105E-2,5.261070728E-1
1.522763063E1,1.371526904E-2,-5.286370963E-2,5.612607598E-1
1.523761563E1,-5.017392039E-1,-6.764423847E-2,5.250418186E-1
1.524758287E1,2.191779912E-1,4.301001877E-2,5.250418186E-1
1.525756225E1,-2.664490640E-1,-4.434159771E-2,5.069323182E-1
1.526753068E1,-1.279647946E-1,-3.368896246E-2,5.197154880E-1
1.527748907E1,3.384875357E-1,5.472791940E-2,5.324986577E-1
1.528745647E1,-4.314317703E-1,-4.753739014E-2,5.122586489E-1
1.529741735E1,-3.749727905E-1,-7.297056168E-2,3.961449265E-1
1.530738412E1,3.906854391E-1,3.342264518E-2,3.311638236E-1
1.531734110E1,-2.387522161E-1,-5.179844424E-2,2.533995807E-1
1.532730683E1,-7.789740711E-2,-4.114580899E-2,1.608548164E-1
1.533728621E1,2.830938101E-1,-1.344895363E-2,1.161137372E-1
1.534725334E1,-1.503353268E-1,-8.149266988E-2,6.498108059E-2
1.535724089E1,4.567318037E-2,-6.018739566E-2,2.769685537E-2
1.536721006E1,2.937464416E-1,-2.836264484E-2,-1.278316416E-2
1.537715662E1,1.383511126E-1,-4.753739014E-2,-5.752423778E-2
1.538712350E1,2.223737836E-1,-2.303632535E-2,-1.054610983E-1
1.539708662E1,2.969422378E-2,-6.551371515E-2,-1.512674391E-1
1.540705308E1,1.468732208E-1,-8.681898564E-2,-1.704421788E-1
1.541704459E1,4.290349185E-1,-4.221107066E-2,-1.533979625E-1
1.542701360E1,-1.759016514E-1,-1.251684725E-1,-1.789642870E-1
1.543698548E1,3.747064769E-1,-4.434159771E-2,-1.970737725E-1
1.544695475E1,7.155908346E-1,1.211737376E-2,-1.576590240E-1
1.545689694E1,-1.247690022E-1,-9.640636295E-2,-1.938779801E-1
1.546686345E1,2.511359155E-1,-6.977476925E-2,-1.225053221E-1
1.547683464E1,7.081339955E-1,-5.992108025E-3,-4.367581010E-2
1.548680162E1,1.628521830E-1,-6.764423847E-2,2.982738242E-2
1.549675725E1,5.771065950E-1,3.129211813E-2,8.841688186E-2
1.550672308E1,5.014728308E-1,5.725792143E-3,1.597895473E-1
1.551671579E1,5.462139249E-1,3.994738800E-4,2.214416862E-1
1.552668433E1,9.647293687E-1,8.881635964E-2,3.332943618E-1
1.553663871E1,1.181111038E-1,2.170474641E-2,4.036017656E-1
1.554660579E1,-6.061350107E-1,-1.603221744E-1,3.961449265E-1
1.555658058E1,7.495461106E-1,-2.836264484E-2,3.599259555E-1
1.556654845E1,3.768370152E-1,-8.468846232E-2,3.854922652E-1
1.557652110E1,1.234374270E-1,-7.829687744E-2,4.451470375E-1
1.558648944E1,1.117062092E0,8.668582886E-2,4.834965467E-1
1.559644449E1,5.536707640E-1,6.431528926E-2,4.792354703E-1
1.560641147E1,2.543316968E-2,1.318263728E-2,5.974797606E-1
1.561636220E1,5.685844421E-1,1.484711170E-1,6.507429481E-1
1.562632751E1,-1.077247858E-1,1.303616315E-1,6.890923977E-1
1.563629183E1,-5.709813237E-1,7.603318989E-2,6.837661266E-1
1.564625704E1,-4.807002097E-2,1.996037811E-1,6.411555409E-1
1.565625709E1,-1.280313730E0,4.301001877E-2,5.484775901E-1
1.566622584E1,-7.755119205E-1,1.175784767E-1,4.675175846E-1
1.567617240E1,7.644598484E-1,3.199785650E-1,5.048018098E-1
1.568613892E1,9.361004084E-2,2.539322078E-1,5.857618451E-1
1.569610631E1,-5.017392039E-1,1.559279710E-1,5.729786754E-1
1.570607287E1,5.014728308E-1,2.890859246E-1,5.175849795E-1
1.571606438E1,1.617869139E-1,2.858901322E-1,5.005407333E-1
1.572603345E1,-2.557964325E-1,2.880206704E-1,4.749744236E-1
1.573598511E1,-1.098553166E-1,2.976080179E-1,4.153196514E-1
1.574595246E1,-9.735178351E-1,1.101216301E-1,3.524691164E-1
1.575590412E1,-4.037349224E-1,1.846900880E-1,2.533995807E-1
1.576586980E1,2.159821987E-1,2.677806616E-1,1.448758543E-1
1.577582751E1,1.042626798E-1,2.667153776E-1,3.941475600E-2
1.578579240E1,1.756353378E-1,2.475406379E-1,-5.326318089E-3
1.579578824E1,3.949464858E-1,2.635195851E-1,-7.563371956E-2
1.580575626E1,1.202416345E-1,2.518016994E-1,-5.965476483E-2
1.581570798E1,-6.263750196E-1,1.143826842E-1,-6.285055727E-2
1.582567433E1,-3.335606754E-1,8.349003643E-2,-1.693769246E-1
1.583566183E1,6.378266215E-2,8.135951310E-2,-1.960085034E-1
1.584563032E1,2.937464416E-1,1.953427196E-1,-3.514038324E-1
1.585556579E1,5.281044245E-1,2.304964215E-1,-3.993407190E-1
1.586553095E1,-2.866890728E-1,1.015995219E-1,-4.898881316E-1
1.587554496E1,-2.430132627E-1,8.135951310E-2,-5.335639119E-1
1.588551501E1,1.447426975E-1,1.133174226E-1,-5.921534300E-1
1.589545392E1,-2.952111959E-1,3.235738352E-2,-6.283723712E-1
1.590542084E1,-3.292996287E-1,-8.468846232E-2,-6.145239472E-1
1.591544074E1,9.147951752E-2,-2.942790836E-2,-6.347639561E-1
1.592541298E1,-5.368928909E-1,-9.853688627E-2,-6.507429481E-1
1.593538652E1,-4.394212738E-3,1.850895584E-2,-5.985450149E-1
1.594535892E1,-4.061317816E-2,-3.368896246E-2,-5.356944799E-1
1.595527319E1,1.051947847E-2,-3.688475490E-2,-4.121238589E-1
1.596523970E1,-6.617950648E-2,-8.575372398E-2,-3.258375227E-1
1.597518475E1,2.362222075E-1,-5.992108025E-3,-3.226417303E-1
1.598514907E1,2.223737910E-2,-7.936213911E-2,-2.386190593E-1
1.599513470E1,7.367629409E-1,1.744369231E-2,-1.576590240E-1
1.600510115E1,1.161803126E0,6.111950055E-2,6.817687303E-2
1.601507194E1,-1.611211337E-2,-5.286370963E-2,1.438105851E-1
1.602503881E1,-4.394212738E-3,1.464737463E-3,3.737743795E-1
1.603500845E1,1.051947847E-2,2.530001104E-3,4.611259997E-1
1.604497563E1,-3.802991211E-1,-4.221107066E-2,4.728438854E-1
1.605492798E1,4.428833723E-1,1.314269006E-1,5.324986577E-1
1.606489360E1,5.153213143E-1,1.665806025E-1,5.122586489E-1
1.607486918E1,-3.328948980E-3,5.259739235E-2,5.538039207E-1
1.608483584E1,-4.271707237E-1,-1.134505793E-1,5.996102691E-1
1.609479647E1,4.109254479E-1,5.792371184E-2,7.135934830E-1
1.610476246E1,-5.126581341E-2,9.094688296E-2,7.508777380E-1
1.611473824E1,-1.748363972E-1,9.201214463E-2,7.858982682E-1
1.612470522E1,9.254477918E-2,4.301001877E-2,9.084035754E-1
1.613466631E1,-5.486107469E-1,-4.647212476E-2,8.274435401E-1
1.614463272E1,-1.311605871E-1,4.833633825E-2,7.795066833E-1
1.615460225E1,7.452850938E-1,1.687111259E-1,8.721846342E-1
1.616456897E1,-3.848264739E-2,1.037300453E-1,7.635276914E-1
1.617452740E1,3.715106845E-2,1.324921697E-1,7.178545594E-1
1.618449329E1,4.077296555E-1,2.198437899E-1,7.837677002E-1
1.619447688E1,-4.793686271E-1,1.878858805E-1,7.189198136E-1
1.620444454E1,-3.741738573E-2,2.709764242E-1,7.146587372E-1
1.621440938E1,5.281044245E-1,3.295659423E-1,7.476819158E-1
1.622437673E1,-3.792338669E-1,1.953427196E-1,7.114629745E-1
1.623434688E1,-8.085350990E-1,1.324921697E-1,5.601955056E-1
1.624431454E1,-2.536658943E-1,2.390185297E-1,3.524691164E-1
1.625428037E1,-2.355564237E-1,2.251701057E-1,2.267680019E-1
1.626424777E1,9.041424841E-2,2.560627460E-1,9.267793596E-2
1.627420277E1,8.944219947E-1,3.572627902E-1,-6.924213469E-2
1.628416897E1,5.611276031E-1,2.155827284E-1,-1.715074480E-1
1.629414865E1,7.591335177E-1,2.038648278E-1,-3.174485564E-1
1.630411615E1,5.771065950E-1,2.113216817E-1,-6.550039649E-1
1.631408355E1,-3.102580272E-2,3.235738352E-2,-8.169240355E-1
1.632405105E1,-7.723161578E-1,-1.976063997E-1,-9.957551956E-1
1.633400647E1,-4.399538934E-1,-2.391516864E-1,-1.153414249E0
1.634397277E1,2.713759243E-1,-1.166463718E-1,-1.336639524E0
1.635395063E1,-7.062698007E-1,-3.563306928E-1,-1.574060202E0
1.636391803E1,-5.922865868E-1,-4.191812575E-1,-1.713609695E0
1.637387548E1,-4.101265073E-1,-3.691138625E-1,-1.827592969E0
1.638384188E1,-2.739059031E-1,-3.254380524E-1,-1.911748767E0
1.639382230E1,6.676539779E-1,-2.221074700E-1,-1.820136070E0
1.640379011E1,9.135967493E-1,-2.391516864E-1,-1.803091884E0
1.641373100E1,5.600623488E-1,-3.563306928E-1,-1.708283424E0
1.642369610E1,5.366265774E-1,-4.213117659E-1,-1.501622319E0
1.643368652E1,5.632581711E-1,-4.681833684E-1,-1.250353217E0
1.644365418E1,-4.601939023E-1,-5.842971206E-1,-9.840372801E-1
1.645362173E1,-7.542066574E-1,-5.225118399E-1,-8.456861973E-1
1.646358938E1,1.415469050E-1,-2.530001104E-1,-7.998798490E-1
1.647355282E1,-7.896266878E-2,-2.828274965E-1,-5.921534300E-1
1.648352001E1,-6.679202914E-1,-4.340949357E-1,-4.323638678E-1
1.649349345E1,2.820285559E-1,-2.796317041E-1,-3.247722387E-1
1.650346126E1,2.479401082E-1,-3.328948915E-1,-1.885516644E-1
1.651342183E1,-1.084305286E0,-6.086649895E-1,-5.965476483E-2
1.652338886E1,-8.117309213E-1,-6.161218882E-1,4.367581010E-2
1.653336100E1,8.454198837E-1,-2.316948473E-1,7.563371956E-2
1.654332860E1,3.225085735E-1,-1.890842915E-1,1.544632316E-1
1.655329704E1,1.777658761E-1,-1.752358675E-1,2.523343265E-1
1.656326470E1,3.928159773E-1,-1.507348120E-1,3.961449265E-1
1.657322860E1,-7.435539961E-1,-2.785664499E-1,3.716438413E-1
1.658319589E1,-4.420844018E-1,-2.700443268E-1,3.993407190E-1
1.659317240E1,7.123950869E-2,-2.029327303E-1,5.644565821E-1
1.660314058E1,-1.038498878E0,-3.265033066E-1,5.090628862E-1
1.661309850E1,-2.845585644E-1,-1.241032109E-1,4.547344148E-1
1.662306563E1,-2.270343155E-1,-1.166463718E-1,4.376901984E-1
1.663303319E1,-8.532761931E-1,-2.956106663E-1,3.705785871E-1
1.664300037E1,5.760413408E-1,-1.741705984E-1,3.119890988E-1
1.665296808E1,9.700556993E-1,-1.336905807E-1,2.182458937E-1
1.666293532E1,1.585911214E-1,-2.253032625E-1,2.109221965E-1
1.667290142E1,8.134619594E-1,-1.379516423E-1,2.981406748E-1
1.668286850E1,8.294408917E-1,-1.027979404E-1,3.343596160E-1
1.669283761E1,1.051947847E-2,-1.816274524E-1,3.332943618E-1
1.670280490E1,2.447443157E-1,-1.145158410E-1,5.069323182E-1
1.671276928E1,-1.192962170E0,-3.073285520E-1,4.781702161E-1
1.672273626E1,-1.628521800E0,-4.330296814E-1,2.182458937E-1
1.673272496E1,7.356976867E-1,-6.338318437E-2,-8.628635854E-2
1.674269412E1,4.194475710E-1,-9.001477808E-2,5.326318089E-3
1.675265746E1,-6.668550372E-1,-2.977411747E-1,-3.941475600E-2
1.676262605E1,3.267696202E-1,-2.359558940E-1,6.072002649E-2
1.677259412E1,-5.784381628E-1,-4.127896726E-1,1.874863952E-1
1.678256261E1,-2.888196111E-1,-3.701791167E-1,2.906838059E-1
1.679253350E1,1.013731480E0,-9.534109384E-2,3.556649089E-1
1.680250225E1,5.238434076E-1,-5.699160323E-2,3.663175404E-1
1.681246595E1,-2.781669796E-1,-2.061285079E-1,3.929491341E-1
1.682243418E1,1.087234735E0,5.725792143E-3,3.343596160E-1
1.683239475E1,5.909550190E-1,-6.870950758E-2,3.258375227E-1
1.684236220E1,4.844286442E-1,-1.209074259E-1,3.151848912E-1
1.685232392E1,4.151864946E-1,-2.583264410E-1,3.343596160E-1
1.686229079E1,-1.035303116E0,-5.331644416E-1,3.024017215E-1
1.687225782E1,-1.215332627E0,-6.416881680E-1,1.928127259E-1
1.688222470E1,8.390282989E-1,-2.412822098E-1,1.459411234E-1
1.689216839E1,9.254477918E-2,-2.711096108E-1,1.949432492E-1
1.690213287E1,-5.603286624E-1,-4.255728126E-1,1.374190152E-1
1.691211095E1,-6.298371404E-2,-5.054675937E-1,1.885516644E-1
1.692207683E1,1.371526904E-2,-5.736444592E-1,3.418164849E-1
1.693204845E1,6.559360623E-1,-4.522044063E-1,4.664523304E-1
1.694201490E1,1.680453420E0,-1.954758763E-1,5.601955056E-1
1.695198438E1,8.486156464E-1,-2.934801280E-1,6.262418628E-1
1.696195115E1,-3.378217220E-1,-5.044023395E-1,7.986814380E-1
1.697191553E1,-4.058654606E-1,-5.704486966E-1,7.656582594E-1
1.698188199E1,-7.446193099E-1,-6.619281769E-1,5.601955056E-1
1.699185142E1,-7.861645818E-1,-6.864292622E-1,6.901576519E-1
1.700181818E1,5.451486707E-1,-4.894886315E-1,1.020256281E0
1.701178418E1,9.029440880E-1,-4.319643974E-1,1.331180096E0
1.702175089E1,6.111950278E-1,-4.575307369E-1,1.580451727E0
1.703171803E1,4.929507375E-1,-4.426170290E-1,1.946769357E0
1.704168475E1,7.323687430E-3,-3.925496638E-1,2.189649343E0
1.705165074E1,-4.697812796E-1,-3.957454562E-1,2.306828499E0
1.706161740E1,2.330264263E-2,-2.924148738E-1,2.600708008E0
1.707158720E1,-2.398174703E-1,-3.137201369E-1,2.939328671E0
1.708155412E1,-3.463438451E-1,-2.838927507E-1,3.275952101E0
1.709152746E1,2.809632719E-1,-1.059937328E-1,3.598593712E0
1.710149506E1,-2.547311783E-1,-9.534109384E-2,3.796732664E0
1.711145392E1,-3.122554123E-1,5.725792143E-3,3.958652735E0
1.712142063E1,-3.707117438E-1,1.111868918E-1,4.055458546E0
1.713139027E1,-6.828339696E-1,9.733846784E-2,4.146006107E0
1.714135725E1,-9.720530361E-3,1.058605760E-1,4.300469398E0
1.715132459E1,3.928159550E-2,1.105211023E-2,4.429366112E0
1.716129157E1,2.426137924E-1,7.283740491E-2,4.496477604E0
1.717125569E1,9.828388691E-1,3.338269889E-1,4.393147469E0
1.718122240E1,1.279914260E0,5.787044764E-1,4.009652138E0
1.719118777E1,1.286305904E0,3.615238369E-1,3.810581207E0
1.720115433E1,7.177214026E-1,-5.592634156E-2,3.646530628E0
1.721112621E1,-1.331579551E-4,-4.434159771E-2,3.208840370E0
1.722109329E1,-8.213182688E-1,2.976080179E-1,2.174735785E0
1.723106074E1,-5.539370775E-1,6.010749936E-1,1.213068962E0
1.724102787E1,5.430181623E-1,6.767086983E-1,6.145239472E-1
1.725099464E1,1.052080989E0,5.179844499E-1,2.374206334E-1
1.726096168E1,1.614407063E0,3.583280444E-1,2.450106293E-2
1.727093506E1,2.133057356E0,3.583280444E-1,-2.961432934E-1
1.728090277E1,7.633945346E-1,1.719069183E-1,-5.335639119E-1
1.729089438E1,7.633945346E-1,9.201214463E-2,-3.503385782E-1
1.730086449E1,1.702823877E0,1.601890177E-1,-3.515370190E-2
1.731080240E1,6.218476295E-1,-1.984053478E-2,1.874863952E-1
1.732076923E1,9.263799191E-1,2.358227372E-1,2.342248410E-1
1.733074053E1,1.545164943E0,6.404897571E-1,2.651174963E-1
1.734070782E1,1.075516820E0,7.768434882E-1,4.749744236E-1
1.735067355E1,1.247024298E0,7.853656411E-1,9.084035754E-1
1.736064068E1,1.311872125E0,8.311719298E-1,1.188567877E0
1.737060360E1,7.303713560E-1,8.908267021E-1,1.302417994E0
1.738057032E1,-3.909517527E-1,8.993488550E-1,1.064997315E0
1.739055527E1,-3.475289583E0,1.665806025E-1,7.402250767E-1
1.740052376E1,-3.984085917E-1,7.390266657E-2,8.700540662E-1
1.741046892E1,2.496179104E0,4.286354482E-1,8.434224725E-1
1.742043511E1,1.051015735E0,2.177132517E-1,8.263782859E-1
1.743041147E1,-1.641837656E-1,4.660528619E-3,9.691236019E-1
1.744037865E1,1.135171533E0,2.209090441E-1,8.295740485E-1
1.745037183E1,1.648495436E0,4.829638898E-1,6.773745418E-1
1.746034162E1,9.902957082E-1,6.159886718E-1,4.398207366E-1
1.747027694E1,-1.611211337E-2,4.456796646E-1,2.171806246E-1
1.748024324E1,-1.576323867E0,-1.581916511E-1,4.025365114E-1
1.749020397E1,1.158474199E-2,-2.018674612E-1,6.571345329E-1
1.750016970E1,2.032922506E0,1.633848101E-1,1.094824672E0
1.751014855E1,1.516402841E0,1.974732429E-1,1.494165421E0
1.752011558E1,9.370325208E-1,2.219743133E-1,1.563407540E0
1.753008235E1,1.219327450E0,5.094623566E-1,1.698696017E0
1.754004933E1,-7.169224024E-1,3.221091032E-1,1.961683035E0
1.755001511E1,-2.458229065E0,2.081258893E-1,1.958487153E0
1.755998199E1,-1.592302799E0,1.974732429E-1,1.777525544E0
1.756995136E1,2.500706315E-1,2.304964215E-1,1.763677120E0
1.757991850E1,9.295756817E-1,2.837595940E-1,2.151299953E0
1.758988287E1,1.484444857E0,4.765723348E-1,2.587924957E0
1.759984970E1,1.554752231E0,9.419593811E-1,2.890459776E0
1.760981277E1,6.463487148E-1,1.041960955E0,2.893655539E0
1.761977918E1,8.721846342E-2,5.861613154E-1,2.675276518E0
1.762975126E1,1.349156380E0,4.595280886E-1,2.274870396E0
1.763971824E1,1.353417397E0,5.179844499E-1,2.101232529E0
1.764969006E1,1.234241128E0,8.226498365E-1,2.008554697E0
1.765965751E1,2.369412661E0,1.130377889E0,1.896701932E0
1.766962131E1,1.095756769E0,9.728519917E-1,1.764742374E0
1.767958834E1,-4.461457253E0,-1.131842658E-2,1.541036963E0
1.768955292E1,-5.720465779E-1,7.856319658E-3,1.479251742E0
1.769951975E1,4.322706699E0,5.744433999E-1,1.706152916E0
1.770949100E1,1.762478709E0,4.179828167E-1,1.712544441E0
1.771945824E1,3.576622605E-1,6.756434441E-1,1.437706470E0
1.772942402E1,2.342781067E0,1.158074737E0,1.478186488E0
1.773939115E1,1.784849286E0,9.898962379E-1,1.689108610E0
1.774936157E1,3.693801761E-1,8.141277432E-1,1.607083321E0
1.775932897E1,1.343830109E0,1.011201501E0,1.185372114E0
1.776929444E1,1.612276554E0,1.112268448E0,7.677887678E-1
1.777926168E1,5.110602379E-1,8.673909307E-1,6.464818716E-1
1.778921626E1,1.195891619E0,8.929572701E-1,5.271723270E-1
1.779918220E1,1.359809041E0,9.259804487E-1,5.197154880E-1
1.780915975E1,4.759065211E-1,7.321024537E-1,5.996102691E-1
1.781912688E1,1.550491214E0,7.789740562E-1,7.773761153E-1
1.782910162E1,1.620798588E0,9.046751261E-1,7.040061355E-1
1.783906949E1,1.175651550E0,1.139965296E0,5.932186842E-1
1.784903433E1,1.937048793E0,1.379649520E0,5.346291661E-1
1.785900183E1,3.576622605E-1,1.148487329E0,4.046670198E-1
1.786896839E1,-1.773397684E0,8.247803450E-1,4.728438854E-1
1.787893579E1,1.633581758E0,1.171923161E0,5.932186842E-1
1.788889938E1,1.828391910E0,1.067527294E0,8.306393027E-1
1.789886642E1,-1.652490199E-1,6.713824272E-1,8.849677444E-1
1.790884454E1,1.192695856E0,8.982835412E-1,8.146603703E-1
1.791881272E1,2.178863525E0,1.134638906E0,7.167892456E-1
1.792878142E1,2.404832691E-1,1.119725227E0,4.238417745E-1
1.793874959E1,-5.102612972E-1,1.006940484E0,1.043958366E-1
1.794872834E1,8.017440438E-1,1.049417853E0,-2.450106293E-2
1.795869756E1,1.223721579E-1,8.194540739E-1,-6.924213469E-2
1.796864527E1,-3.559312224E-1,5.542033911E-1,-1.555284858E-1
1.797861230E1,1.201217890E0,6.745781898E-1,-2.535327375E-1
1.798857595E1,1.324655294E0,7.779088020E-1,-4.099933505E-1
1.799854267E1,5.994771123E-1,9.430246353E-1,-6.060018539E-1
1.800852121E1,6.793718934E-1,1.138900042E0,-7.934882641E-1
1.801848907E1,2.170474678E-1,1.017593145E0,-8.392946124E-1
1.802845339E1,-7.265098095E-1,6.862961054E-1,-8.030756116E-1
1.803842089E1,-7.190529704E-1,5.073317885E-1,-7.721830010E-1
1.804839225E1,4.034686089E-1,6.064013243E-1,-8.392946124E-1
1.805836011E1,3.491401672E-1,6.064013243E-1,-1.071388960E0
1.806831371E1,2.000032514E-1,5.233107805E-1,-1.141696334E0
1.807828011E1,8.954872489E-1,6.585992575E-1,-1.184306860E0
1.808824194E1,7.218492627E-1,7.512772083E-1,-1.304681659E0
1.809820787E1,-2.440785319E-1,5.765739679E-1,-1.306812167E0
1.810818313E1,1.500690132E-1,4.126565158E-1,-1.302551150E0
1.811815001E1,6.452834606E-1,3.689807057E-1,-1.332378507E0
1.812812720E1,1.850895584E-1,2.390185297E-1,-1.343031168E0
1.813809511E1,3.406180441E-1,2.294311523E-1,-1.315334320E0
1.814805412E1,2.681801319E-1,2.475406379E-1,-1.258875251E0
1.815802110E1,-6.404897571E-2,1.953427196E-1,-1.019191027E0
1.816798767E1,1.447426975E-1,2.241048366E-1,-6.560692191E-1
1.817795459E1,9.454214945E-3,3.146522343E-1,-3.865575492E-1
1.818791230E1,-1.897500902E-1,3.583280444E-1,-8.309056610E-2
1.819787834E1,3.150517344E-1,4.627238810E-1,2.629869580E-1
1.820786454E1,1.735048145E-1,5.360939503E-1,5.719134212E-1
1.821783261E1,-2.664490640E-1,5.659213066E-1,8.050730228E-1
1.822776980E1,-4.687159956E-1,5.243760347E-1,1.019191027E0
1.823773470E1,-5.901560783E-1,4.691154659E-1,1.154479504E0
1.824773371E1,3.182475269E-2,5.020055175E-1,1.299222112E0
1.825770204E1,5.558013320E-1,6.085318327E-1,1.407879114E0
1.826764194E1,3.949464858E-1,6.202497482E-1,1.403617978E0
1.827760735E1,3.022685647E-1,5.989444852E-1,1.400422215E0
1.828760454E1,4.812328517E-1,7.022750378E-1,1.285506845E0
1.829757318E1,2.660495937E-1,6.894918680E-1,1.205612183E0
1.830753850E1,4.269044101E-1,7.448856235E-1,1.014929891E0
1.831750678E1,4.950812757E-1,7.938877344E-1,7.656582594E-1
1.832745454E1,4.354264960E-2,6.351634264E-1,5.623260736E-1
1.833742079E1,7.443529367E-2,5.318328738E-1,4.334291518E-1
1.834738944E1,3.640538454E-1,5.179844499E-1,2.629869580E-1
1.835735589E1,1.372858584E-1,3.934817612E-1,8.415582776E-2
1.836734423E1,3.363569975E-1,3.167827725E-1,-9.374319762E-2
1.837731287E1,2.468748540E-1,2.784332931E-1,-2.215748429E-1
1.838728334E1,2.202432603E-1,3.870901763E-1,-4.366249442E-1
1.839725214E1,3.747064769E-1,4.680502117E-1,-6.145239472E-1
1.840722444E1,4.780370593E-1,5.030707717E-1,-8.265114427E-1
1.841719360E1,4.865591824E-1,5.052012801E-1,-9.904288650E-1
1.842713782E1,1.724395454E-1,3.647196293E-1,-9.510141015E-1
1.843710449E1,-5.020054802E-2,3.050648868E-1,-8.732498884E-1
1.844707506E1,-1.801627129E-1,3.466101587E-1,-9.819067717E-1
1.845704204E1,-9.596694112E-1,1.378184855E-1,-1.041561484E0
1.846698261E1,-2.302301079E-1,1.282311082E-1,-1.037300467E0
1.847694694E1,3.587275445E-1,1.846900880E-1,-1.168327928E0
1.848694933E1,-2.206427306E-1,1.026647836E-1,-1.290833235E0
1.849691751E1,2.607232630E-1,1.463405937E-1,-1.365401626E0
1.850686261E1,6.729803085E-1,1.474058628E-1,-1.423858047E0
1.851682845E1,-1.482048035E-1,-5.992108025E-3,-1.500556946E0
1.852679220E1,3.896201849E-1,6.431528926E-2,-1.551689625E0
1.853675777E1,5.856286883E-1,8.775109053E-2,-1.525058031E0
1.854675032E1,-3.090596199E-1,-5.486107618E-2,-1.446228504E0
1.855671865E1,-1.982721984E-1,-1.027979404E-1,-1.392033219E0
1.856665282E1,8.388951421E-3,-1.432779580E-1,-1.335574269E0
1.857661766E1,-6.402234435E-1,-2.679138184E-1,-1.297224760E0
1.858660652E1,-1.077247858E-1,-1.656484902E-1,-1.252483726E0
1.859657381E1,2.362222075E-1,-1.006674170E-1,-1.181111097E0
1.860655595E1,1.490037590E-1,-1.145158410E-1,-1.083106756E0
1.861652475E1,6.378266215E-1,1.464737463E-3,-9.488835931E-1
1.862648418E1,6.921550632E-1,3.661843762E-2,-8.062714338E-1
1.863645199E1,5.952160433E-2,-5.286370963E-2,-6.528734565E-1
1.864643183E1,2.234390527E-1,-7.403582335E-2,-4.515386224E-1
1.865640089E1,4.237086177E-1,-8.362319320E-2,-3.131875098E-1
1.866636662E1,1.319595277E-1,-9.640636295E-2,-2.737727463E-1
1.867633532E1,-1.418132186E-1,-1.027979404E-1,-2.556632757E-1
1.868626110E1,-6.412886977E-1,-1.816274524E-1,-1.970737725E-1
1.869622542E1,2.500706315E-1,-2.836264484E-2,-2.002695650E-1
1.870623636E1,4.055991173E-1,-3.049317189E-2,-1.693769246E-1
1.871620543E1,-2.153164148E-1,-1.784316599E-1,-1.246358454E-1
1.872613959E1,7.474156022E-1,-8.149266988E-2,-1.043958366E-1
1.873610516E1,9.487504363E-1,-4.860265180E-2,-1.214400530E-1
1.874609412E1,-3.954791278E-2,-1.358211190E-1,-1.459411234E-1
1.875606204E1,7.337003201E-2,-1.315600574E-1,-1.384842694E-1
1.876601266E1,4.386222959E-1,-3.475422785E-2,-1.768337637E-1
1.877597881E1,-1.119858399E-1,-6.764423847E-2,-2.354232669E-1
1.878595459E1,-2.323606312E-1,-1.209074259E-1,-2.354232669E-1
1.879592173E1,-8.109319210E-2,-1.560611278E-1,-2.322274745E-1
1.880589214E1,-1.822932363E-1,-1.837579757E-1,-2.545980215E-1
1.881585954E1,-3.271690905E-1,-1.858884990E-1,-2.748380303E-1
1.882582558E1,-3.292996287E-1,-1.699095517E-1,-2.567285299E-1
1.883579287E1,-4.282359779E-1,-1.731053442E-1,-2.269011587E-1
1.884578548E1,-5.656549931E-1,-2.103895694E-1,-2.087916732E-1
1.885575532E1,-5.273054838E-1,-2.221074700E-1,-2.332927436E-1
1.886569990E1,-1.268995255E-1,-1.454084814E-1,-2.641853690E-1
1.887566720E1,-4.061317816E-2,-1.091895252E-1,-2.183790505E-1
1.888564777E1,4.684496820E-1,1.637842879E-2,-1.406148076E-1
1.889561636E1,1.016927361E0,8.349003643E-2,-2.450106293E-2
1.890557600E1,6.442182064E-1,-6.657897611E-4,1.320926845E-1
1.891554371E1,7.230477035E-2,-7.084003091E-2,2.885532975E-1
1.892551537E1,2.394180000E-1,-6.551371515E-2,4.941491783E-1
1.893548345E1,3.736412227E-1,-9.187898599E-3,6.368945241E-1
1.894543470E1,2.458095849E-1,5.472791940E-2,7.018755674E-1
1.895540105E1,2.830938101E-1,1.239700541E-1,7.338334918E-1
1.896542928E1,7.123950869E-2,1.079910994E-1,7.487471700E-1
1.897540188E1,7.337003201E-2,6.538055837E-2,7.901592851E-1
1.898535464E1,6.271740049E-2,1.957421936E-2,8.625972271E-1
1.899532527E1,-2.440785319E-1,7.856319658E-3,8.753803968E-1
1.900524860E1,-1.854890287E-1,6.538055837E-2,8.689888120E-1
1.901521444E1,-1.993374527E-1,8.562056720E-2,8.647277355E-1
1.902517714E1,-3.760380745E-1,6.111950055E-2,8.562056422E-1
1.903514261E1,-3.229080439E-1,6.538055837E-2,8.178561330E-1
1.904509751E1,-4.601939023E-1,1.850895584E-2,7.476819158E-1
1.905506194E1,-3.356912136E-1,5.725792143E-3,6.187850237E-1
1.906503449E1,3.821633384E-2,6.751108170E-2,5.154544711E-1
1.907499975E1,-2.344911546E-1,-1.025316212E-2,5.516734123E-1
1.908498949E1,-1.258342713E-1,-4.114580899E-2,6.422207952E-1
1.909495720E1,3.779022694E-1,1.069258377E-1,6.294376254E-1
1.910491115E1,1.000016257E-1,1.186437383E-1,5.836313367E-1
1.911487746E1,-1.119858399E-1,8.668582886E-2,4.930838943E-1
1.912484980E1,2.330264263E-2,1.207742617E-1,3.364901543E-1
1.913481668E1,-2.579269707E-1,6.111950055E-2,2.555301189E-1
1.914478740E1,-2.504701018E-1,2.277000993E-2,2.395511568E-1
1.915475470E1,-1.141163707E-1,2.383527346E-2,2.246374637E-1
1.916472240E1,-2.717753947E-1,-5.179844424E-2,2.299637944E-1
1.917468970E1,-1.311605871E-1,-7.297056168E-2,2.182458937E-1
1.918466178E1,-6.085318699E-2,-6.764423847E-2,1.736379713E-1
1.919462954E1,-1.194426864E-1,-9.427583218E-2,1.438105851E-1
1.920457277E1,8.388951421E-3,-8.042740822E-2,1.384842694E-1
1.921453803E1,1.584579609E-2,-4.221107066E-2,8.841688186E-2
1.922452933E1,2.117211558E-2,-2.836264484E-2,6.285055727E-2
1.923449725E1,1.861548275E-1,-3.368896246E-2,7.456845790E-2
1.924447652E1,1.415469050E-1,-6.018739566E-2,8.522108942E-2
1.925444558E1,1.063932031E-1,-4.540686309E-2,6.498108059E-2
1.926439371E1,1.351553202E-1,-2.516685426E-2,4.793686420E-2
1.927436063E1,3.608580679E-2,-3.581948951E-2,3.728422895E-2
1.928429355E1,-4.593949392E-2,-5.286370963E-2,1.171789970E-2
1.929425704E1,-2.356895804E-2,-6.125266105E-2,-1.491369121E-2
1.930425407E1,-1.162468940E-1,-9.427583218E-2,-4.687159881E-2
1.931422095E1,-1.290300637E-1,-1.091895252E-1,-8.735162020E-2
1.932417360E1,-8.428898454E-2,-1.017326787E-1,-1.427453309E-1
1.933413902E1,-7.257108390E-2,-9.214530140E-2,-1.874863952E-1
1.934411850E1,-9.494162351E-2,-9.960214794E-2,-2.226400971E-1
1.935408532E1,-8.428898454E-2,-1.166463718E-1,-2.354232669E-1
1.936405949E1,-2.996053919E-2,-1.177116334E-1,-2.279664129E-1
1.937402704E1,2.543316968E-2,-1.134505793E-1,-2.237053663E-1
1.938398787E1,3.075948730E-2,-1.187768951E-1,-2.162485123E-1
1.939395475E1,3.182475269E-2,-1.134505793E-1,-1.949432492E-1
1.940391964E1,-2.569948509E-2,-1.049284711E-1,-1.672463864E-1
1.941388631E1,-3.102580272E-2,-8.255793154E-2,-1.214400530E-1
1.942385516E1,-5.978792161E-2,-6.125266105E-2,-5.965476483E-2
1.943382204E1,-1.194426864E-1,-3.901528195E-2,1.704421826E-2
1.944377871E1,-1.450090110E-1,-1.025316212E-2,8.628635854E-2
1.945374454E1,-1.194426864E-1,1.318263728E-2,1.555284858E-1
1.946372558E1,-1.503353268E-1,1.318263728E-2,2.278332561E-1
1.947369292E1,-1.300953180E-1,2.809632942E-2,2.896185517E-1
1.948366803E1,-1.045289934E-1,3.981423005E-2,3.343596160E-1
1.949363615E1,-1.290300637E-1,4.833633825E-2,3.695133328E-1
1.950358095E1,-1.141163707E-1,8.455529809E-2,3.759049177E-1
1.951354673E1,-8.428898454E-2,1.197090000E-1,3.716438413E-1
1.952353001E1,-8.002793044E-2,1.207742617E-1,3.812312186E-1
1.953349751E1,-3.422159329E-2,9.733846784E-2,3.599259555E-1
1.954346542E1,-5.020054802E-2,5.685844645E-2,3.183806837E-1
1.955343293E1,-7.150582224E-2,4.660528619E-3,2.629869580E-1
1.956338069E1,-3.422159329E-2,-4.008054361E-2,1.864211410E-1
1.957334621E1,-3.209106624E-2,-7.297056168E-2,1.001347825E-1
1.958333819E1,-1.930790395E-2,-9.960214794E-2,2.237053588E-2
1.959330642E1,7.323687430E-3,-1.358211190E-1,-2.982738242E-2
1.960326475E1,9.321057005E-4,-1.848232448E-1,-7.776424289E-2
1.961323194E1,4.673844203E-2,-2.082590461E-1,-1.246358454E-1
1.962318761E1,5.952160433E-2,-2.125200927E-1,-1.693769246E-1
1.963315360E1,-6.298371404E-2,-2.402169555E-1,-1.874863952E-1
1.964313746E1,1.021321490E-1,-2.146506310E-1,-1.906821877E-1
1.965310527E1,1.053279415E-1,-2.103895694E-1,-1.693769246E-1
1.966307313E1,-1.717737690E-2,-2.338253707E-1,-1.395495385E-1
1.967304095E1,1.426121742E-1,-2.221074700E-1,-1.480716467E-1
1.968298683E1,1.914811432E-1,-2.061285079E-1,-1.906821877E-1
1.969295240E1,3.928159550E-2,-2.231727391E-1,-1.842906028E-1
1.970294845E1,1.308942735E-1,-2.221074700E-1,-2.269011587E-1
1.971291709E1,1.745700836E-1,-1.954758763E-1,-2.716422379E-1
1.972287600E1,-1.198421582E-3,-1.784316599E-1,-2.503369451E-1
1.973284365E1,7.230477035E-2,-1.336905807E-1,-2.354232669E-1
1.974279725E1,1.063932031E-1,-9.640636295E-2,-2.162485123E-1
1.975276350E1,-6.085318699E-2,-7.510108501E-2,-2.141179889E-1
1.976274454E1,7.323687430E-3,-4.327633604E-2,-2.428801060E-1
1.977271225E1,6.910897791E-2,-4.114580899E-2,-2.801643312E-1
1.978267527E1,-3.741738573E-2,-6.977476925E-2,-3.206443489E-1
1.979264251E1,2.543316968E-2,-7.084003091E-2,-3.631217480E-1
1.980259792E1,6.271740049E-2,-8.255793154E-2,-4.089280665E-1
1.981256392E1,-2.037316747E-2,-1.006674170E-1,-4.387554526E-1
1.982255287E1,2.436790615E-2,-8.894951642E-2,-4.536691606E-1
1.983252121E1,3.821633384E-2,-7.616634667E-2,-4.536691606E-1
1.984247938E1,-2.463422157E-2,-8.042740822E-2,-4.376901984E-1
1.985244668E1,3.182475269E-2,-6.551371515E-2,-4.227765203E-1
1.986239647E1,3.289001435E-2,-5.179844424E-2,-4.057323039E-1
1.987236199E1,-9.720530361E-3,-5.179844424E-2,-3.695133328E-1
